"rt","stimulus","response","typeoftrial","subject","trial_type","trial_index","time_elapsed","internal_node_id","run_id","condition","recorded_at","source_code_version","ip","user_agent","device","browser","browser_version","platform","platform_version","question_order","practice_rating","sentence_num","rating","Experiment"
"1286","
        <p style=""font-size:20px;""> Welcome! Thank you for your interest in our study. </p>
        <p style=""font-size:20px;""> This study is being conducted by researchers at Bowdoin College.</p>
        <p style=""font-size:20px;""> In this experiment, you will be asked to rate the accuracy of English and Spanish translations.</p>
        <p style=""font-size:20px;""> The entire experiment should not last more than 20 minutes. You will be paid $3 USD for your participation. </p>
        <p style=""font-size:20px;""> Please click <a href = ""https://drive.google.com/file/d/1L92a02eEKCpaAEipmqDcBCDR7rsarqFE/view?usp=sharing"" target = ""_blank"">here</a> to read the full consent form. </p>
        <p style=""font-size:20px;""> If you agree to participate, please click the button below to continue to experiment instructions.</p>
        ","0","consent","39224","html-button-response","0","1288","0.0-0.0","1","1","2022-11-29 19:10:41","2df368f4e41f066fd1c82c297b4a1108","139.140.208.169","Mozilla/5.0 (Macintosh; Intel Mac OS X 10_15_7) AppleWebKit/605.1.15 (KHTML, like Gecko) Version/16.1 Safari/605.1.15","Macintosh","Safari","16.1","OS X","10_15_7","","","","",""
"1909","","{""ID"":""3243""}","ID","39224","survey-text","1","3208","0.0-1.0","1","1","2022-11-29 19:10:41","2df368f4e41f066fd1c82c297b4a1108","139.140.208.169","Mozilla/5.0 (Macintosh; Intel Mac OS X 10_15_7) AppleWebKit/605.1.15 (KHTML, like Gecko) Version/16.1 Safari/605.1.15","Macintosh","Safari","16.1","OS X","10_15_7","","","","",""
"7168","
        <p style=""font-size:20px;""> You are about to begin the practice test. </p>
        <p style=""font-size:20px;""> On each trial, you will see a sentence in English and its corresponding Spanish translation. </p>
        <p style=""font-size:20px;""> You will rate the accuracy of the translation on a scale from ""Not at all accurate"" to ""Very accurate."" </p>
        <p style=""font-size:20px;""> If you rate the translation as ""Somewhat innaccurate"" or ""Not at all accurate,"" you will be asked to provide your own translation or a reason why the translation is inaccurate. </p>
        <p style=""font-size:20px;""> Click the button below to continue to the practice session.</p>","0","instructions","39224","html-button-response","2","10378","0.0-2.0","1","1","2022-11-29 19:10:41","2df368f4e41f066fd1c82c297b4a1108","139.140.208.169","Mozilla/5.0 (Macintosh; Intel Mac OS X 10_15_7) AppleWebKit/605.1.15 (KHTML, like Gecko) Version/16.1 Safari/605.1.15","Macintosh","Safari","16.1","OS X","10_15_7","","","","",""
"3150","You drop a rock on a phone <br> T&uacute tiras una piedra a un tel&eacutefono","{""Q0"":1}","practice","39224","survey-likert","3","13531","0.0-3.0-0.0","1","1","2022-11-29 19:10:41","2df368f4e41f066fd1c82c297b4a1108","139.140.208.169","Mozilla/5.0 (Macintosh; Intel Mac OS X 10_15_7) AppleWebKit/605.1.15 (KHTML, like Gecko) Version/16.1 Safari/605.1.15","Macintosh","Safari","16.1","OS X","10_15_7","[0]","1","","",""
"1535","You drop a rock on a phone <br> T&uacute tiras una piedra a un tel&eacutefono","{""Q0"":""hi""}","practice_low_rate","39224","survey-text","4","15078","0.0-3.0-1.0-0.0","1","1","2022-11-29 19:10:41","2df368f4e41f066fd1c82c297b4a1108","139.140.208.169","Mozilla/5.0 (Macintosh; Intel Mac OS X 10_15_7) AppleWebKit/605.1.15 (KHTML, like Gecko) Version/16.1 Safari/605.1.15","Macintosh","Safari","16.1","OS X","10_15_7","","","1","",""
"2418","You see how an artist is running <br> T&uacute ves como un artista est&aacute corriendo","{""Q0"":3}","practice","39224","survey-likert","5","17498","0.0-3.0-0.1","1","1","2022-11-29 19:10:41","2df368f4e41f066fd1c82c297b4a1108","139.140.208.169","Mozilla/5.0 (Macintosh; Intel Mac OS X 10_15_7) AppleWebKit/605.1.15 (KHTML, like Gecko) Version/16.1 Safari/605.1.15","Macintosh","Safari","16.1","OS X","10_15_7","[0]","3","","",""
"1251","You see how a duck is playing with a pumpkin <br> T&uacute ves como un pato est&aacute jugando con una calabaza","{""Q0"":2}","practice","39224","survey-likert","6","18754","0.0-3.0-0.2","1","1","2022-11-29 19:10:41","2df368f4e41f066fd1c82c297b4a1108","139.140.208.169","Mozilla/5.0 (Macintosh; Intel Mac OS X 10_15_7) AppleWebKit/605.1.15 (KHTML, like Gecko) Version/16.1 Safari/605.1.15","Macintosh","Safari","16.1","OS X","10_15_7","[0]","2","","",""
"1325","You see how a tiger is playing with a goose <br> T&uacute ves como un le&oacuten come una pizza","{""Q0"":4}","practice","39224","survey-likert","7","20083","0.0-3.0-0.3","1","1","2022-11-29 19:10:41","2df368f4e41f066fd1c82c297b4a1108","139.140.208.169","Mozilla/5.0 (Macintosh; Intel Mac OS X 10_15_7) AppleWebKit/605.1.15 (KHTML, like Gecko) Version/16.1 Safari/605.1.15","Macintosh","Safari","16.1","OS X","10_15_7","[0]","4","","",""
"1149","You see how a teacher is drawing a picture <br> T&uacute ves como un maestro pinta una foto","{""Q0"":2}","practice","39224","survey-likert","8","21236","0.0-3.0-0.4","1","1","2022-11-29 19:10:41","2df368f4e41f066fd1c82c297b4a1108","139.140.208.169","Mozilla/5.0 (Macintosh; Intel Mac OS X 10_15_7) AppleWebKit/605.1.15 (KHTML, like Gecko) Version/16.1 Safari/605.1.15","Macintosh","Safari","16.1","OS X","10_15_7","[0]","2","","",""
"975","You drop a bowling ball on a mircrowave <br> T&uacute tiras una bola de boliche a un horno","{""Q0"":1}","practice","39224","survey-likert","9","22214","0.0-3.0-0.5","1","1","2022-11-29 19:10:41","2df368f4e41f066fd1c82c297b4a1108","139.140.208.169","Mozilla/5.0 (Macintosh; Intel Mac OS X 10_15_7) AppleWebKit/605.1.15 (KHTML, like Gecko) Version/16.1 Safari/605.1.15","Macintosh","Safari","16.1","OS X","10_15_7","[0]","1","","",""
"2165","You drop a bowling ball on a mircrowave <br> T&uacute tiras una bola de boliche a un horno","{""Q0"":""hi""}","practice_low_rate","39224","survey-text","10","24391","0.0-3.0-1.5-0.5","1","1","2022-11-29 19:10:41","2df368f4e41f066fd1c82c297b4a1108","139.140.208.169","Mozilla/5.0 (Macintosh; Intel Mac OS X 10_15_7) AppleWebKit/605.1.15 (KHTML, like Gecko) Version/16.1 Safari/605.1.15","Macintosh","Safari","16.1","OS X","10_15_7","","","6","",""
"697","<p style=""font-size:20px;"">You have now completed the practice session! </p>
        <p style=""font-size:20px;"">You will now move on to the main experiment. </p>
        <p style=""font-size:20px;"">Please click the button below to continue. </p>","0","movetoexp","39224","html-button-response","11","25089","0.0-4.0","1","1","2022-11-29 19:10:41","2df368f4e41f066fd1c82c297b4a1108","139.140.208.169","Mozilla/5.0 (Macintosh; Intel Mac OS X 10_15_7) AppleWebKit/605.1.15 (KHTML, like Gecko) Version/16.1 Safari/605.1.15","Macintosh","Safari","16.1","OS X","10_15_7","","","","",""
"2601","You drop a ring on the newspaper <br> T&uacute tiras un anillo al peri&oacutedico","{""Q0"":3}","trial","39224","survey-likert","12","27693","0.0-5.0-0.0","1","1","2022-11-29 19:10:41","2df368f4e41f066fd1c82c297b4a1108","139.140.208.169","Mozilla/5.0 (Macintosh; Intel Mac OS X 10_15_7) AppleWebKit/605.1.15 (KHTML, like Gecko) Version/16.1 Safari/605.1.15","Macintosh","Safari","16.1","OS X","10_15_7","[0]","","41","3",""
"1632","You drop a bowling ball on a blackberry <br> T&uacute tiras una bola de boliche a una mora","{""Q0"":1}","trial","39224","survey-likert","13","29330","0.0-5.0-0.1","1","1","2022-11-29 19:10:41","2df368f4e41f066fd1c82c297b4a1108","139.140.208.169","Mozilla/5.0 (Macintosh; Intel Mac OS X 10_15_7) AppleWebKit/605.1.15 (KHTML, like Gecko) Version/16.1 Safari/605.1.15","Macintosh","Safari","16.1","OS X","10_15_7","[0]","","8","1",""
"1698","You drop a bowling ball on a blackberry <br> T&uacute tiras una bola de boliche a una mora","{""Q0"":""hi""}","low_rate","39224","survey-text","14","31038","0.0-5.0-1.1-0.1","1","1","2022-11-29 19:10:41","2df368f4e41f066fd1c82c297b4a1108","139.140.208.169","Mozilla/5.0 (Macintosh; Intel Mac OS X 10_15_7) AppleWebKit/605.1.15 (KHTML, like Gecko) Version/16.1 Safari/605.1.15","Macintosh","Safari","16.1","OS X","10_15_7","","","8","",""
"1470","You drop a bowling ball on a hat <br> T&uacute tiras una bola de boliche a una gorra","{""Q0"":0}","trial","39224","survey-likert","15","32511","0.0-5.0-0.2","1","1","2022-11-29 19:10:41","2df368f4e41f066fd1c82c297b4a1108","139.140.208.169","Mozilla/5.0 (Macintosh; Intel Mac OS X 10_15_7) AppleWebKit/605.1.15 (KHTML, like Gecko) Version/16.1 Safari/605.1.15","Macintosh","Safari","16.1","OS X","10_15_7","[0]","","10","0",""
"2160","You drop a bowling ball on a hat <br> T&uacute tiras una bola de boliche a una gorra","{""Q0"":""hi""}","low_rate","39224","survey-text","16","34680","0.0-5.0-1.2-0.2","1","1","2022-11-29 19:10:41","2df368f4e41f066fd1c82c297b4a1108","139.140.208.169","Mozilla/5.0 (Macintosh; Intel Mac OS X 10_15_7) AppleWebKit/605.1.15 (KHTML, like Gecko) Version/16.1 Safari/605.1.15","Macintosh","Safari","16.1","OS X","10_15_7","","","10","",""
"1599","You drop a bowling ball on a paper cup <br> T&uacute tiras una bola de boliche a un vaso de papel","{""Q0"":3}","trial","39224","survey-likert","17","36282","0.0-5.0-0.3","1","1","2022-11-29 19:10:41","2df368f4e41f066fd1c82c297b4a1108","139.140.208.169","Mozilla/5.0 (Macintosh; Intel Mac OS X 10_15_7) AppleWebKit/605.1.15 (KHTML, like Gecko) Version/16.1 Safari/605.1.15","Macintosh","Safari","16.1","OS X","10_15_7","[0]","","24","3",""
"1236","You see how a zebra is playing with a horse <br> T&uacute ves como una cebra est&aacute jugando con un caballo","{""Q0"":4}","trial","39224","survey-likert","18","37522","0.0-5.0-0.4","1","1","2022-11-29 19:10:41","2df368f4e41f066fd1c82c297b4a1108","139.140.208.169","Mozilla/5.0 (Macintosh; Intel Mac OS X 10_15_7) AppleWebKit/605.1.15 (KHTML, like Gecko) Version/16.1 Safari/605.1.15","Macintosh","Safari","16.1","OS X","10_15_7","[0]","","66","4",""
"1133","You see how a thief is stealing a wallet <br> T&uacute ves como un ladr&oacuten est&aacute robando una billetera","{""Q0"":3}","trial","39224","survey-likert","19","38659","0.0-5.0-0.5","1","1","2022-11-29 19:10:41","2df368f4e41f066fd1c82c297b4a1108","139.140.208.169","Mozilla/5.0 (Macintosh; Intel Mac OS X 10_15_7) AppleWebKit/605.1.15 (KHTML, like Gecko) Version/16.1 Safari/605.1.15","Macintosh","Safari","16.1","OS X","10_15_7","[0]","","68","3",""
"998","You see how an elephant is eating a watermelon <br> T&uacute ves como un elefante est&aacute comiendo una sand&iacutea","{""Q0"":2}","trial","39224","survey-likert","20","39661","0.0-5.0-0.6","1","1","2022-11-29 19:10:41","2df368f4e41f066fd1c82c297b4a1108","139.140.208.169","Mozilla/5.0 (Macintosh; Intel Mac OS X 10_15_7) AppleWebKit/605.1.15 (KHTML, like Gecko) Version/16.1 Safari/605.1.15","Macintosh","Safari","16.1","OS X","10_15_7","[0]","","31","2",""
"2445","You see how a cat is drinking water from a bowl <br> T&uacute ves como un gato est&aacute bebiendo agua de un cuenco","{""Q0"":3}","trial","39224","survey-likert","21","42111","0.0-5.0-0.7","1","1","2022-11-29 19:10:41","2df368f4e41f066fd1c82c297b4a1108","139.140.208.169","Mozilla/5.0 (Macintosh; Intel Mac OS X 10_15_7) AppleWebKit/605.1.15 (KHTML, like Gecko) Version/16.1 Safari/605.1.15","Macintosh","Safari","16.1","OS X","10_15_7","[0]","","28","3",""
"1164","You see how an astronaut is putting on a space suit <br> T&uacute ves como un astronauta se est&aacute poniendo su traje espacial","{""Q0"":1}","trial","39224","survey-likert","22","43280","0.0-5.0-0.8","1","1","2022-11-29 19:10:41","2df368f4e41f066fd1c82c297b4a1108","139.140.208.169","Mozilla/5.0 (Macintosh; Intel Mac OS X 10_15_7) AppleWebKit/605.1.15 (KHTML, like Gecko) Version/16.1 Safari/605.1.15","Macintosh","Safari","16.1","OS X","10_15_7","[0]","","33","1",""
"2174","You see how an astronaut is putting on a space suit <br> T&uacute ves como un astronauta se est&aacute poniendo su traje espacial","{""Q0"":""hi""}","low_rate","39224","survey-text","23","45465","0.0-5.0-1.8-0.8","1","1","2022-11-29 19:10:41","2df368f4e41f066fd1c82c297b4a1108","139.140.208.169","Mozilla/5.0 (Macintosh; Intel Mac OS X 10_15_7) AppleWebKit/605.1.15 (KHTML, like Gecko) Version/16.1 Safari/605.1.15","Macintosh","Safari","16.1","OS X","10_15_7","","","33","",""
"1440","You drop a bowling ball on a wine glass <br> T&uacute tiras una bola de boliche a una copa de vino","{""Q0"":2}","trial","39224","survey-likert","24","46906","0.0-5.0-0.9","1","1","2022-11-29 19:10:41","2df368f4e41f066fd1c82c297b4a1108","139.140.208.169","Mozilla/5.0 (Macintosh; Intel Mac OS X 10_15_7) AppleWebKit/605.1.15 (KHTML, like Gecko) Version/16.1 Safari/605.1.15","Macintosh","Safari","16.1","OS X","10_15_7","[0]","","5","2",""
"1196","You drop a bowling ball on an iPAD <br> T&uacute tiras una bola de boliche a un iPad","{""Q0"":3}","trial","39224","survey-likert","25","48110","0.0-5.0-0.10","1","1","2022-11-29 19:10:41","2df368f4e41f066fd1c82c297b4a1108","139.140.208.169","Mozilla/5.0 (Macintosh; Intel Mac OS X 10_15_7) AppleWebKit/605.1.15 (KHTML, like Gecko) Version/16.1 Safari/605.1.15","Macintosh","Safari","16.1","OS X","10_15_7","[0]","","12","3",""
"1337","You drop a needle on the mouse pad <br> T&uacute tiras una aguja a la alfombrilla para el rat&oacuten","{""Q0"":4}","trial","39224","survey-likert","26","49451","0.0-5.0-0.11","1","1","2022-11-29 19:10:41","2df368f4e41f066fd1c82c297b4a1108","139.140.208.169","Mozilla/5.0 (Macintosh; Intel Mac OS X 10_15_7) AppleWebKit/605.1.15 (KHTML, like Gecko) Version/16.1 Safari/605.1.15","Macintosh","Safari","16.1","OS X","10_15_7","[0]","","42","4",""
"1093","You see how a man is shaving his beard <br> T&uacute ves como un hombre se est&aacute afeitando la barba","{""Q0"":3}","trial","39224","survey-likert","27","50550","0.0-5.0-0.12","1","1","2022-11-29 19:10:41","2df368f4e41f066fd1c82c297b4a1108","139.140.208.169","Mozilla/5.0 (Macintosh; Intel Mac OS X 10_15_7) AppleWebKit/605.1.15 (KHTML, like Gecko) Version/16.1 Safari/605.1.15","Macintosh","Safari","16.1","OS X","10_15_7","[0]","","43","3",""
"1688","You drop a remote on the rug <br> T&uacute tiras un control remoto a la alfombra","{""Q0"":4}","trial","39224","survey-likert","28","52242","0.0-5.0-0.13","1","1","2022-11-29 19:10:41","2df368f4e41f066fd1c82c297b4a1108","139.140.208.169","Mozilla/5.0 (Macintosh; Intel Mac OS X 10_15_7) AppleWebKit/605.1.15 (KHTML, like Gecko) Version/16.1 Safari/605.1.15","Macintosh","Safari","16.1","OS X","10_15_7","[0]","","39","4",""
"1086","You see how a president is writing in the notebook <br> T&uacute ves como un presidente est&aacute escribiendo en la libreta","{""Q0"":3}","trial","39224","survey-likert","29","53333","0.0-5.0-0.14","1","1","2022-11-29 19:10:41","2df368f4e41f066fd1c82c297b4a1108","139.140.208.169","Mozilla/5.0 (Macintosh; Intel Mac OS X 10_15_7) AppleWebKit/605.1.15 (KHTML, like Gecko) Version/16.1 Safari/605.1.15","Macintosh","Safari","16.1","OS X","10_15_7","[0]","","63","3",""
"1092","You drop a pencil on the shoe <br> T&uacute tiras un l&aacutepiz al zapato","{""Q0"":2}","trial","39224","survey-likert","30","54429","0.0-5.0-0.15","1","1","2022-11-29 19:10:41","2df368f4e41f066fd1c82c297b4a1108","139.140.208.169","Mozilla/5.0 (Macintosh; Intel Mac OS X 10_15_7) AppleWebKit/605.1.15 (KHTML, like Gecko) Version/16.1 Safari/605.1.15","Macintosh","Safari","16.1","OS X","10_15_7","[0]","","40","2",""
"1115","You drop a keyboard on the bed <br> T&uacute tiras un teclado a la cama","{""Q0"":3}","trial","39224","survey-likert","31","55549","0.0-5.0-0.16","1","1","2022-11-29 19:10:41","2df368f4e41f066fd1c82c297b4a1108","139.140.208.169","Mozilla/5.0 (Macintosh; Intel Mac OS X 10_15_7) AppleWebKit/605.1.15 (KHTML, like Gecko) Version/16.1 Safari/605.1.15","Macintosh","Safari","16.1","OS X","10_15_7","[0]","","36","3",""
"1104","You see how a hairdresser is taking scissors <br> T&uacute ves como una peluquera est&aacute agarrando las tijeras","{""Q0"":3}","trial","39224","survey-likert","32","56657","0.0-5.0-0.17","1","1","2022-11-29 19:10:41","2df368f4e41f066fd1c82c297b4a1108","139.140.208.169","Mozilla/5.0 (Macintosh; Intel Mac OS X 10_15_7) AppleWebKit/605.1.15 (KHTML, like Gecko) Version/16.1 Safari/605.1.15","Macintosh","Safari","16.1","OS X","10_15_7","[0]","","60","3",""
"941","You drop a bowling ball on a mirror <br> T&uacute tiras una bola de boliche a un espejo","{""Q0"":2}","trial","39224","survey-likert","33","57603","0.0-5.0-0.18","1","1","2022-11-29 19:10:41","2df368f4e41f066fd1c82c297b4a1108","139.140.208.169","Mozilla/5.0 (Macintosh; Intel Mac OS X 10_15_7) AppleWebKit/605.1.15 (KHTML, like Gecko) Version/16.1 Safari/605.1.15","Macintosh","Safari","16.1","OS X","10_15_7","[0]","","15","2",""
"1467","You drop a watch on the laptop <br> T&uacute tiras un reloj al port&aacutetil","{""Q0"":4}","trial","39224","survey-likert","34","59075","0.0-5.0-0.19","1","1","2022-11-29 19:10:41","2df368f4e41f066fd1c82c297b4a1108","139.140.208.169","Mozilla/5.0 (Macintosh; Intel Mac OS X 10_15_7) AppleWebKit/605.1.15 (KHTML, like Gecko) Version/16.1 Safari/605.1.15","Macintosh","Safari","16.1","OS X","10_15_7","[0]","","37","4",""
"1370","You drop a bowling ball on an iPhone <br> T&uacute tiras una bola de boliche a un iPhone","{""Q0"":4}","trial","39224","survey-likert","35","60450","0.0-5.0-0.20","1","1","2022-11-29 19:10:41","2df368f4e41f066fd1c82c297b4a1108","139.140.208.169","Mozilla/5.0 (Macintosh; Intel Mac OS X 10_15_7) AppleWebKit/605.1.15 (KHTML, like Gecko) Version/16.1 Safari/605.1.15","Macintosh","Safari","16.1","OS X","10_15_7","[0]","","13","4",""
"973","You see how a man is boiling potatoes <br> T&uacute ves a un hombre est&aacute hirviendo papas","{""Q0"":3}","trial","39224","survey-likert","36","61428","0.0-5.0-0.21","1","1","2022-11-29 19:10:41","2df368f4e41f066fd1c82c297b4a1108","139.140.208.169","Mozilla/5.0 (Macintosh; Intel Mac OS X 10_15_7) AppleWebKit/605.1.15 (KHTML, like Gecko) Version/16.1 Safari/605.1.15","Macintosh","Safari","16.1","OS X","10_15_7","[0]","","46","3",""
"1243","You see how a boy is peeling a banana <br> T&uacute ves como un ni&ntildeo est&aacute pelando una banana","{""Q0"":4}","trial","39224","survey-likert","37","62677","0.0-5.0-0.22","1","1","2022-11-29 19:10:41","2df368f4e41f066fd1c82c297b4a1108","139.140.208.169","Mozilla/5.0 (Macintosh; Intel Mac OS X 10_15_7) AppleWebKit/605.1.15 (KHTML, like Gecko) Version/16.1 Safari/605.1.15","Macintosh","Safari","16.1","OS X","10_15_7","[0]","","30","4",""
"1099","You see how a mouse is eating cheese <br> T&uacute ves como el rat&oacuten est&aacute comiendo queso","{""Q0"":3}","trial","39224","survey-likert","38","63781","0.0-5.0-0.23","1","1","2022-11-29 19:10:41","2df368f4e41f066fd1c82c297b4a1108","139.140.208.169","Mozilla/5.0 (Macintosh; Intel Mac OS X 10_15_7) AppleWebKit/605.1.15 (KHTML, like Gecko) Version/16.1 Safari/605.1.15","Macintosh","Safari","16.1","OS X","10_15_7","[0]","","56","3",""
"1444","You see how a woman is taking money out of a wallet <br> T&uacute ves como una mujer est&aacute sacando dinero de su billetera","{""Q0"":2}","trial","39224","survey-likert","39","65231","0.0-5.0-0.24","1","1","2022-11-29 19:10:41","2df368f4e41f066fd1c82c297b4a1108","139.140.208.169","Mozilla/5.0 (Macintosh; Intel Mac OS X 10_15_7) AppleWebKit/605.1.15 (KHTML, like Gecko) Version/16.1 Safari/605.1.15","Macintosh","Safari","16.1","OS X","10_15_7","[0]","","44","2",""
"1282","You drop a bowling ball on a donut <br> T&uacute tiras una bola de boliche a una rosquilla","{""Q0"":3}","trial","39224","survey-likert","40","66523","0.0-5.0-0.25","1","1","2022-11-29 19:10:41","2df368f4e41f066fd1c82c297b4a1108","139.140.208.169","Mozilla/5.0 (Macintosh; Intel Mac OS X 10_15_7) AppleWebKit/605.1.15 (KHTML, like Gecko) Version/16.1 Safari/605.1.15","Macintosh","Safari","16.1","OS X","10_15_7","[0]","","17","3",""
"1150","You drop a bowling ball on a piece of cake <br> T&uacute tiras una bola de boliche a un trozo de pastel","{""Q0"":1}","trial","39224","survey-likert","41","67679","0.0-5.0-0.26","1","1","2022-11-29 19:10:41","2df368f4e41f066fd1c82c297b4a1108","139.140.208.169","Mozilla/5.0 (Macintosh; Intel Mac OS X 10_15_7) AppleWebKit/605.1.15 (KHTML, like Gecko) Version/16.1 Safari/605.1.15","Macintosh","Safari","16.1","OS X","10_15_7","[0]","","2","1",""
"1387","You drop a bowling ball on a piece of cake <br> T&uacute tiras una bola de boliche a un trozo de pastel","{""Q0"":""hi""}","low_rate","39224","survey-text","42","69076","0.0-5.0-1.26-0.26","1","1","2022-11-29 19:10:41","2df368f4e41f066fd1c82c297b4a1108","139.140.208.169","Mozilla/5.0 (Macintosh; Intel Mac OS X 10_15_7) AppleWebKit/605.1.15 (KHTML, like Gecko) Version/16.1 Safari/605.1.15","Macintosh","Safari","16.1","OS X","10_15_7","","","2","",""
"1566","You see how a woman is paying with a debit card <br> T&uacute ves como una mujer est&aacute pagando con una tarjeta de d&eacutebito","{""Q0"":3}","trial","39224","survey-likert","43","70645","0.0-5.0-0.27","1","1","2022-11-29 19:10:41","2df368f4e41f066fd1c82c297b4a1108","139.140.208.169","Mozilla/5.0 (Macintosh; Intel Mac OS X 10_15_7) AppleWebKit/605.1.15 (KHTML, like Gecko) Version/16.1 Safari/605.1.15","Macintosh","Safari","16.1","OS X","10_15_7","[0]","","64","3",""
"2205","You drop a bowling ball on a rice cake <br> T&uacute tiras una bola de boliche a una tortita de arroz","{""Q0"":4}","trial","39224","survey-likert","44","72856","0.0-5.0-0.28","1","1","2022-11-29 19:10:41","2df368f4e41f066fd1c82c297b4a1108","139.140.208.169","Mozilla/5.0 (Macintosh; Intel Mac OS X 10_15_7) AppleWebKit/605.1.15 (KHTML, like Gecko) Version/16.1 Safari/605.1.15","Macintosh","Safari","16.1","OS X","10_15_7","[0]","","18","4",""
"1084","You drop a bowling ball on glasses <br> T&uacute tiras una bola de boliche a unas gafas","{""Q0"":3}","trial","39224","survey-likert","45","73945","0.0-5.0-0.29","1","1","2022-11-29 19:10:41","2df368f4e41f066fd1c82c297b4a1108","139.140.208.169","Mozilla/5.0 (Macintosh; Intel Mac OS X 10_15_7) AppleWebKit/605.1.15 (KHTML, like Gecko) Version/16.1 Safari/605.1.15","Macintosh","Safari","16.1","OS X","10_15_7","[0]","","9","3",""
"1555","You see how a man is playing with a cat <br> T&uacute ves como un hombre est&aacute jugando con un gato","{""Q0"":3}","trial","39224","survey-likert","46","75505","0.0-5.0-0.30","1","1","2022-11-29 19:10:41","2df368f4e41f066fd1c82c297b4a1108","139.140.208.169","Mozilla/5.0 (Macintosh; Intel Mac OS X 10_15_7) AppleWebKit/605.1.15 (KHTML, like Gecko) Version/16.1 Safari/605.1.15","Macintosh","Safari","16.1","OS X","10_15_7","[0]","","67","3",""
"1285","You drop a cushion on the magazine <br> T&uacute tiras un coj&iacuten a la revista","{""Q0"":3}","trial","39224","survey-likert","47","76795","0.0-5.0-0.31","1","1","2022-11-29 19:10:41","2df368f4e41f066fd1c82c297b4a1108","139.140.208.169","Mozilla/5.0 (Macintosh; Intel Mac OS X 10_15_7) AppleWebKit/605.1.15 (KHTML, like Gecko) Version/16.1 Safari/605.1.15","Macintosh","Safari","16.1","OS X","10_15_7","[0]","","38","3",""
"1234","You drop a bowling ball on a cracker <br> T&uacute tiras una bola de boliche a una galleta","{""Q0"":2}","trial","39224","survey-likert","48","78039","0.0-5.0-0.32","1","1","2022-11-29 19:10:41","2df368f4e41f066fd1c82c297b4a1108","139.140.208.169","Mozilla/5.0 (Macintosh; Intel Mac OS X 10_15_7) AppleWebKit/605.1.15 (KHTML, like Gecko) Version/16.1 Safari/605.1.15","Macintosh","Safari","16.1","OS X","10_15_7","[0]","","4","2",""
"1087","You see how a musician is playing a guitar <br> T&uacute ves como un m&uacutesico est&aacute tocando la guitarra","{""Q0"":3}","trial","39224","survey-likert","49","79131","0.0-5.0-0.33","1","1","2022-11-29 19:10:41","2df368f4e41f066fd1c82c297b4a1108","139.140.208.169","Mozilla/5.0 (Macintosh; Intel Mac OS X 10_15_7) AppleWebKit/605.1.15 (KHTML, like Gecko) Version/16.1 Safari/605.1.15","Macintosh","Safari","16.1","OS X","10_15_7","[0]","","27","3",""
"1268","You drop a bowling ball on a piece of sushi <br> T&uacute tiras una bola de boliche a un pedazo de sushi","{""Q0"":4}","trial","39224","survey-likert","50","80404","0.0-5.0-0.34","1","1","2022-11-29 19:10:41","2df368f4e41f066fd1c82c297b4a1108","139.140.208.169","Mozilla/5.0 (Macintosh; Intel Mac OS X 10_15_7) AppleWebKit/605.1.15 (KHTML, like Gecko) Version/16.1 Safari/605.1.15","Macintosh","Safari","16.1","OS X","10_15_7","[0]","","21","4",""
"1345","You see how a police officer is talking on the phone <br> T&uacute ves como un polic&iacutea est&aacute hablando por el tel&eacutefono","{""Q0"":3}","trial","39224","survey-likert","51","81755","0.0-5.0-0.35","1","1","2022-11-29 19:10:41","2df368f4e41f066fd1c82c297b4a1108","139.140.208.169","Mozilla/5.0 (Macintosh; Intel Mac OS X 10_15_7) AppleWebKit/605.1.15 (KHTML, like Gecko) Version/16.1 Safari/605.1.15","Macintosh","Safari","16.1","OS X","10_15_7","[0]","","62","3",""
"1626","You drop a towel on the TV <br> T&uacute tiras una toalla a la televisi&oacuten","{""Q0"":4}","trial","39224","survey-likert","52","83386","0.0-5.0-0.36","1","1","2022-11-29 19:10:41","2df368f4e41f066fd1c82c297b4a1108","139.140.208.169","Mozilla/5.0 (Macintosh; Intel Mac OS X 10_15_7) AppleWebKit/605.1.15 (KHTML, like Gecko) Version/16.1 Safari/605.1.15","Macintosh","Safari","16.1","OS X","10_15_7","[0]","","53","4",""
"1291","You see how a panda is resting on a tree <br> T&uacute ves como un panda est&aacute descansando en un &aacuterbol","{""Q0"":3}","trial","39224","survey-likert","53","84682","0.0-5.0-0.37","1","1","2022-11-29 19:10:41","2df368f4e41f066fd1c82c297b4a1108","139.140.208.169","Mozilla/5.0 (Macintosh; Intel Mac OS X 10_15_7) AppleWebKit/605.1.15 (KHTML, like Gecko) Version/16.1 Safari/605.1.15","Macintosh","Safari","16.1","OS X","10_15_7","[0]","","57","3",""
"1752","You see how a postman is driving a car <br> T&uacute ves como un cartero est&aacute conduciendo un coche","{""Q0"":2}","trial","39224","survey-likert","54","86439","0.0-5.0-0.38","1","1","2022-11-29 19:10:41","2df368f4e41f066fd1c82c297b4a1108","139.140.208.169","Mozilla/5.0 (Macintosh; Intel Mac OS X 10_15_7) AppleWebKit/605.1.15 (KHTML, like Gecko) Version/16.1 Safari/605.1.15","Macintosh","Safari","16.1","OS X","10_15_7","[0]","","32","2",""
"1747","You see how a kitten is playing in the sandbox <br> T&uacute ves como un gatito est&aacute jugando en la caja de arena","{""Q0"":3}","trial","39224","survey-likert","55","88190","0.0-5.0-0.39","1","1","2022-11-29 19:10:41","2df368f4e41f066fd1c82c297b4a1108","139.140.208.169","Mozilla/5.0 (Macintosh; Intel Mac OS X 10_15_7) AppleWebKit/605.1.15 (KHTML, like Gecko) Version/16.1 Safari/605.1.15","Macintosh","Safari","16.1","OS X","10_15_7","[0]","","52","3",""
"1484","You see how a teenage girl is playing the piano <br> T&uacute ves como una ni&ntildea adolescente est&aacute tocando el piano","{""Q0"":4}","trial","39224","survey-likert","56","89682","0.0-5.0-0.40","1","1","2022-11-29 19:10:41","2df368f4e41f066fd1c82c297b4a1108","139.140.208.169","Mozilla/5.0 (Macintosh; Intel Mac OS X 10_15_7) AppleWebKit/605.1.15 (KHTML, like Gecko) Version/16.1 Safari/605.1.15","Macintosh","Safari","16.1","OS X","10_15_7","[0]","","54","4",""
"1963","You drop a toothbrush on the sponge <br> T&uacute tiras un cepillo de dientes en la esponja","{""Q0"":3}","trial","39224","survey-likert","57","91649","0.0-5.0-0.41","1","1","2022-11-29 19:10:41","2df368f4e41f066fd1c82c297b4a1108","139.140.208.169","Mozilla/5.0 (Macintosh; Intel Mac OS X 10_15_7) AppleWebKit/605.1.15 (KHTML, like Gecko) Version/16.1 Safari/605.1.15","Macintosh","Safari","16.1","OS X","10_15_7","[0]","","25","3",""
"1615","You see how a horse is chewing hay <br> T&uacute ves como un caballo est&aacute masticando el heno","{""Q0"":2}","trial","39224","survey-likert","58","93270","0.0-5.0-0.42","1","1","2022-11-29 19:10:41","2df368f4e41f066fd1c82c297b4a1108","139.140.208.169","Mozilla/5.0 (Macintosh; Intel Mac OS X 10_15_7) AppleWebKit/605.1.15 (KHTML, like Gecko) Version/16.1 Safari/605.1.15","Macintosh","Safari","16.1","OS X","10_15_7","[0]","","55","2",""
"1712","You drop a bowling ball on a tomato <br> T&uacute tiras una bola de boliche a un tomate","{""Q0"":3}","trial","39224","survey-likert","59","94988","0.0-5.0-0.43","1","1","2022-11-29 19:10:41","2df368f4e41f066fd1c82c297b4a1108","139.140.208.169","Mozilla/5.0 (Macintosh; Intel Mac OS X 10_15_7) AppleWebKit/605.1.15 (KHTML, like Gecko) Version/16.1 Safari/605.1.15","Macintosh","Safari","16.1","OS X","10_15_7","[0]","","23","3",""
"1600","You see how a butterfly is sitting on a flower <br> T&uacute ves como una mariposa est&aacute reposando en una flor","{""Q0"":0}","trial","39224","survey-likert","60","96593","0.0-5.0-0.44","1","1","2022-11-29 19:10:41","2df368f4e41f066fd1c82c297b4a1108","139.140.208.169","Mozilla/5.0 (Macintosh; Intel Mac OS X 10_15_7) AppleWebKit/605.1.15 (KHTML, like Gecko) Version/16.1 Safari/605.1.15","Macintosh","Safari","16.1","OS X","10_15_7","[0]","","59","0",""
"1919","You see how a butterfly is sitting on a flower <br> T&uacute ves como una mariposa est&aacute reposando en una flor","{""Q0"":""hi""}","low_rate","39224","survey-text","61","98524","0.0-5.0-1.44-0.44","1","1","2022-11-29 19:10:41","2df368f4e41f066fd1c82c297b4a1108","139.140.208.169","Mozilla/5.0 (Macintosh; Intel Mac OS X 10_15_7) AppleWebKit/605.1.15 (KHTML, like Gecko) Version/16.1 Safari/605.1.15","Macintosh","Safari","16.1","OS X","10_15_7","","","59","",""
"1499","You see how a pilot is reading a book <br> T&uacute ves como un piloto est&aacute leyendo un libro","{""Q0"":3}","trial","39224","survey-likert","62","100027","0.0-5.0-0.45","1","1","2022-11-29 19:10:41","2df368f4e41f066fd1c82c297b4a1108","139.140.208.169","Mozilla/5.0 (Macintosh; Intel Mac OS X 10_15_7) AppleWebKit/605.1.15 (KHTML, like Gecko) Version/16.1 Safari/605.1.15","Macintosh","Safari","16.1","OS X","10_15_7","[0]","","61","3",""
"1047","You see how a parrot is eating an apple <br> T&uacute ves como un loro est&aacute comiendo una manzana","{""Q0"":2}","trial","39224","survey-likert","63","101079","0.0-5.0-0.46","1","1","2022-11-29 19:10:41","2df368f4e41f066fd1c82c297b4a1108","139.140.208.169","Mozilla/5.0 (Macintosh; Intel Mac OS X 10_15_7) AppleWebKit/605.1.15 (KHTML, like Gecko) Version/16.1 Safari/605.1.15","Macintosh","Safari","16.1","OS X","10_15_7","[0]","","58","2",""
"1377","You see how an owl is sitting on the branch <br> T&uacute ves como un b&uacuteho est&aacute reposando en una rama","{""Q0"":4}","trial","39224","survey-likert","64","102461","0.0-5.0-0.47","1","1","2022-11-29 19:10:41","2df368f4e41f066fd1c82c297b4a1108","139.140.208.169","Mozilla/5.0 (Macintosh; Intel Mac OS X 10_15_7) AppleWebKit/605.1.15 (KHTML, like Gecko) Version/16.1 Safari/605.1.15","Macintosh","Safari","16.1","OS X","10_15_7","[0]","","69","4",""
"1211","You see how an actress is taking a microphone <br> T&uacute ves como una actriz est&aacute agarrando el micr&oacutefono","{""Q0"":3}","trial","39224","survey-likert","65","103678","0.0-5.0-0.48","1","1","2022-11-29 19:10:41","2df368f4e41f066fd1c82c297b4a1108","139.140.208.169","Mozilla/5.0 (Macintosh; Intel Mac OS X 10_15_7) AppleWebKit/605.1.15 (KHTML, like Gecko) Version/16.1 Safari/605.1.15","Macintosh","Safari","16.1","OS X","10_15_7","[0]","","51","3",""
"1195","You drop a bowling ball on an empty can of beer <br> T&uacute tiras una bola de boliche a una lata de cerveza vac&iacutea","{""Q0"":3}","trial","39224","survey-likert","66","104878","0.0-5.0-0.49","1","1","2022-11-29 19:10:41","2df368f4e41f066fd1c82c297b4a1108","139.140.208.169","Mozilla/5.0 (Macintosh; Intel Mac OS X 10_15_7) AppleWebKit/605.1.15 (KHTML, like Gecko) Version/16.1 Safari/605.1.15","Macintosh","Safari","16.1","OS X","10_15_7","[0]","","3","3",""
"1211","You drop a bowling ball on an egg flan <br> T&uacute tiras una bola de boliche a un flan","{""Q0"":3}","trial","39224","survey-likert","67","106095","0.0-5.0-0.50","1","1","2022-11-29 19:10:41","2df368f4e41f066fd1c82c297b4a1108","139.140.208.169","Mozilla/5.0 (Macintosh; Intel Mac OS X 10_15_7) AppleWebKit/605.1.15 (KHTML, like Gecko) Version/16.1 Safari/605.1.15","Macintosh","Safari","16.1","OS X","10_15_7","[0]","","7","3",""
"1474","You drop a bowling ball on a chocolate muffin <br> T&uacute tiras una bola de boliche a una magdalena de chocolate","{""Q0"":4}","trial","39224","survey-likert","68","107575","0.0-5.0-0.51","1","1","2022-11-29 19:10:41","2df368f4e41f066fd1c82c297b4a1108","139.140.208.169","Mozilla/5.0 (Macintosh; Intel Mac OS X 10_15_7) AppleWebKit/605.1.15 (KHTML, like Gecko) Version/16.1 Safari/605.1.15","Macintosh","Safari","16.1","OS X","10_15_7","[0]","","16","4",""
"1244","You drop a fork on the plate <br> T&uacute tiras un tenedor al plato","{""Q0"":4}","trial","39224","survey-likert","69","108830","0.0-5.0-0.52","1","1","2022-11-29 19:10:41","2df368f4e41f066fd1c82c297b4a1108","139.140.208.169","Mozilla/5.0 (Macintosh; Intel Mac OS X 10_15_7) AppleWebKit/605.1.15 (KHTML, like Gecko) Version/16.1 Safari/605.1.15","Macintosh","Safari","16.1","OS X","10_15_7","[0]","","26","4",""
"1425","You drop a bowling ball on an egg <br> T&uacute tiras una bola de boliche a un huevo","{""Q0"":4}","trial","39224","survey-likert","70","110261","0.0-5.0-0.53","1","1","2022-11-29 19:10:41","2df368f4e41f066fd1c82c297b4a1108","139.140.208.169","Mozilla/5.0 (Macintosh; Intel Mac OS X 10_15_7) AppleWebKit/605.1.15 (KHTML, like Gecko) Version/16.1 Safari/605.1.15","Macintosh","Safari","16.1","OS X","10_15_7","[0]","","6","4",""
"1214","You see how a puppy is playing with a ball <br> T&uacute ves como un cachorro est&aacute jugando con una pelota","{""Q0"":3}","trial","39224","survey-likert","71","111480","0.0-5.0-0.54","1","1","2022-11-29 19:10:41","2df368f4e41f066fd1c82c297b4a1108","139.140.208.169","Mozilla/5.0 (Macintosh; Intel Mac OS X 10_15_7) AppleWebKit/605.1.15 (KHTML, like Gecko) Version/16.1 Safari/605.1.15","Macintosh","Safari","16.1","OS X","10_15_7","[0]","","34","3",""
"1435","You see how a giraffe is playing with a zebra <br> T&uacute ves como una jirafa est&aacute jugando con una cebra","{""Q0"":0}","trial","39224","survey-likert","72","112921","0.0-5.0-0.55","1","1","2022-11-29 19:10:41","2df368f4e41f066fd1c82c297b4a1108","139.140.208.169","Mozilla/5.0 (Macintosh; Intel Mac OS X 10_15_7) AppleWebKit/605.1.15 (KHTML, like Gecko) Version/16.1 Safari/605.1.15","Macintosh","Safari","16.1","OS X","10_15_7","[0]","","65","0",""
"1552","You see how a giraffe is playing with a zebra <br> T&uacute ves como una jirafa est&aacute jugando con una cebra","{""Q0"":""hi""}","low_rate","39224","survey-text","73","114484","0.0-5.0-1.55-0.55","1","1","2022-11-29 19:10:41","2df368f4e41f066fd1c82c297b4a1108","139.140.208.169","Mozilla/5.0 (Macintosh; Intel Mac OS X 10_15_7) AppleWebKit/605.1.15 (KHTML, like Gecko) Version/16.1 Safari/605.1.15","Macintosh","Safari","16.1","OS X","10_15_7","","","65","",""
"2072","You see how a dentist is drinking a can of cola <br> T&uacute ves como un dentista est&aacute bebiendo una lata de cola","{""Q0"":3}","trial","39224","survey-likert","74","116560","0.0-5.0-0.56","1","1","2022-11-29 19:10:41","2df368f4e41f066fd1c82c297b4a1108","139.140.208.169","Mozilla/5.0 (Macintosh; Intel Mac OS X 10_15_7) AppleWebKit/605.1.15 (KHTML, like Gecko) Version/16.1 Safari/605.1.15","Macintosh","Safari","16.1","OS X","10_15_7","[0]","","47","3",""
"1266","You see how a cook is taking a knife <br> T&uacute ves como un cocinero est&aacute agarrando un cuchillo","{""Q0"":2}","trial","39224","survey-likert","75","117832","0.0-5.0-0.57","1","1","2022-11-29 19:10:41","2df368f4e41f066fd1c82c297b4a1108","139.140.208.169","Mozilla/5.0 (Macintosh; Intel Mac OS X 10_15_7) AppleWebKit/605.1.15 (KHTML, like Gecko) Version/16.1 Safari/605.1.15","Macintosh","Safari","16.1","OS X","10_15_7","[0]","","71","2",""
"1394","You drop a cabbage on the table <br> T&uacute tiras una col a la mesa","{""Q0"":4}","trial","39224","survey-likert","76","119232","0.0-5.0-0.58","1","1","2022-11-29 19:10:41","2df368f4e41f066fd1c82c297b4a1108","139.140.208.169","Mozilla/5.0 (Macintosh; Intel Mac OS X 10_15_7) AppleWebKit/605.1.15 (KHTML, like Gecko) Version/16.1 Safari/605.1.15","Macintosh","Safari","16.1","OS X","10_15_7","[0]","","35","4",""
"1330","You drop a thermometer on the box <br> T&uacute tiras un term&oacutemetro a la caja","{""Q0"":3}","trial","39224","survey-likert","77","120572","0.0-5.0-0.59","1","1","2022-11-29 19:10:41","2df368f4e41f066fd1c82c297b4a1108","139.140.208.169","Mozilla/5.0 (Macintosh; Intel Mac OS X 10_15_7) AppleWebKit/605.1.15 (KHTML, like Gecko) Version/16.1 Safari/605.1.15","Macintosh","Safari","16.1","OS X","10_15_7","[0]","","70","3",""
"1292","You drop a bowling ball on a tile <br> T&uacute tiras una bola de boliche a una baldosa","{""Q0"":4}","trial","39224","survey-likert","78","121870","0.0-5.0-0.60","1","1","2022-11-29 19:10:41","2df368f4e41f066fd1c82c297b4a1108","139.140.208.169","Mozilla/5.0 (Macintosh; Intel Mac OS X 10_15_7) AppleWebKit/605.1.15 (KHTML, like Gecko) Version/16.1 Safari/605.1.15","Macintosh","Safari","16.1","OS X","10_15_7","[0]","","22","4",""
"1108","You see how a donkey is drinking water <br> T&uacute ves como un burro est&aacute bebiendo agua","{""Q0"":3}","trial","39224","survey-likert","79","122984","0.0-5.0-0.61","1","1","2022-11-29 19:10:41","2df368f4e41f066fd1c82c297b4a1108","139.140.208.169","Mozilla/5.0 (Macintosh; Intel Mac OS X 10_15_7) AppleWebKit/605.1.15 (KHTML, like Gecko) Version/16.1 Safari/605.1.15","Macintosh","Safari","16.1","OS X","10_15_7","[0]","","45","3",""
"1703","You see how a photographer is taking a photo of a lion <br> T&uacute ves como un fot&oacutegrafo est&aacute tomando una foto de un le&oacuten","{""Q0"":2}","trial","39224","survey-likert","80","124693","0.0-5.0-0.62","1","1","2022-11-29 19:10:41","2df368f4e41f066fd1c82c297b4a1108","139.140.208.169","Mozilla/5.0 (Macintosh; Intel Mac OS X 10_15_7) AppleWebKit/605.1.15 (KHTML, like Gecko) Version/16.1 Safari/605.1.15","Macintosh","Safari","16.1","OS X","10_15_7","[0]","","72","2",""
"1425","You drop a bowling ball on a porcelain figure <br> T&uacute tiras una bola de boliche a una figura de porcelana","{""Q0"":4}","trial","39224","survey-likert","81","126124","0.0-5.0-0.63","1","1","2022-11-29 19:10:41","2df368f4e41f066fd1c82c297b4a1108","139.140.208.169","Mozilla/5.0 (Macintosh; Intel Mac OS X 10_15_7) AppleWebKit/605.1.15 (KHTML, like Gecko) Version/16.1 Safari/605.1.15","Macintosh","Safari","16.1","OS X","10_15_7","[0]","","1","4",""
"1060","You see how a doctor is taking a stethoscope <br> T&uacute ves como un doctor est&aacute agarrando un estetoscopio","{""Q0"":3}","trial","39224","survey-likert","82","127190","0.0-5.0-0.64","1","1","2022-11-29 19:10:41","2df368f4e41f066fd1c82c297b4a1108","139.140.208.169","Mozilla/5.0 (Macintosh; Intel Mac OS X 10_15_7) AppleWebKit/605.1.15 (KHTML, like Gecko) Version/16.1 Safari/605.1.15","Macintosh","Safari","16.1","OS X","10_15_7","[0]","","49","3",""
"1218","You drop a bowling ball on a strawberry <br> T&uacute tiras una bola de boliche a una fresa","{""Q0"":4}","trial","39224","survey-likert","83","128414","0.0-5.0-0.65","1","1","2022-11-29 19:10:41","2df368f4e41f066fd1c82c297b4a1108","139.140.208.169","Mozilla/5.0 (Macintosh; Intel Mac OS X 10_15_7) AppleWebKit/605.1.15 (KHTML, like Gecko) Version/16.1 Safari/605.1.15","Macintosh","Safari","16.1","OS X","10_15_7","[0]","","20","4",""
"4043","You drop a bowling ball on a chocolate ice-cream <br> T&uacute tiras una bola de boliche a un helado de chocolate","{""Q0"":3}","trial","39224","survey-likert","84","132463","0.0-5.0-0.66","1","1","2022-11-29 19:10:41","2df368f4e41f066fd1c82c297b4a1108","139.140.208.169","Mozilla/5.0 (Macintosh; Intel Mac OS X 10_15_7) AppleWebKit/605.1.15 (KHTML, like Gecko) Version/16.1 Safari/605.1.15","Macintosh","Safari","16.1","OS X","10_15_7","[0]","","11","3",""
"1390","You see how an old man is hammering a nail <br> T&uacute ves como un hombre anciano est&aacute martillando un clavo","{""Q0"":1}","trial","39224","survey-likert","85","133862","0.0-5.0-0.67","1","1","2022-11-29 19:10:41","2df368f4e41f066fd1c82c297b4a1108","139.140.208.169","Mozilla/5.0 (Macintosh; Intel Mac OS X 10_15_7) AppleWebKit/605.1.15 (KHTML, like Gecko) Version/16.1 Safari/605.1.15","Macintosh","Safari","16.1","OS X","10_15_7","[0]","","29","1",""
"1391","You see how an old man is hammering a nail <br> T&uacute ves como un hombre anciano est&aacute martillando un clavo","{""Q0"":""hi""}","low_rate","39224","survey-text","86","135267","0.0-5.0-1.67-0.67","1","1","2022-11-29 19:10:41","2df368f4e41f066fd1c82c297b4a1108","139.140.208.169","Mozilla/5.0 (Macintosh; Intel Mac OS X 10_15_7) AppleWebKit/605.1.15 (KHTML, like Gecko) Version/16.1 Safari/605.1.15","Macintosh","Safari","16.1","OS X","10_15_7","","","29","",""
"1501","You see how a nurse is taking a syringe <br> T&uacute ves como una enfermera est&aacute agarrando una jeringuilla","{""Q0"":4}","trial","39224","survey-likert","87","136771","0.0-5.0-0.68","1","1","2022-11-29 19:10:41","2df368f4e41f066fd1c82c297b4a1108","139.140.208.169","Mozilla/5.0 (Macintosh; Intel Mac OS X 10_15_7) AppleWebKit/605.1.15 (KHTML, like Gecko) Version/16.1 Safari/605.1.15","Macintosh","Safari","16.1","OS X","10_15_7","[0]","","48","4",""
"1258","You drop a bowling ball on a ceramic plate <br> T&uacute tiras una bola de boliche a un plato de cer&aacutemica","{""Q0"":3}","trial","39224","survey-likert","88","138035","0.0-5.0-0.69","1","1","2022-11-29 19:10:41","2df368f4e41f066fd1c82c297b4a1108","139.140.208.169","Mozilla/5.0 (Macintosh; Intel Mac OS X 10_15_7) AppleWebKit/605.1.15 (KHTML, like Gecko) Version/16.1 Safari/605.1.15","Macintosh","Safari","16.1","OS X","10_15_7","[0]","","19","3",""
"1354","You see how a student is writing on a board <br> T&uacute ves como un estudiante est&aacute escribiendo en la pizarra","{""Q0"":4}","trial","39224","survey-likert","89","139395","0.0-5.0-0.70","1","1","2022-11-29 19:10:41","2df368f4e41f066fd1c82c297b4a1108","139.140.208.169","Mozilla/5.0 (Macintosh; Intel Mac OS X 10_15_7) AppleWebKit/605.1.15 (KHTML, like Gecko) Version/16.1 Safari/605.1.15","Macintosh","Safari","16.1","OS X","10_15_7","[0]","","50","4",""
"1433","You drop a bowling ball on a light bulb <br> T&uacute tiras una bola de boliche a una bombilla","{""Q0"":3}","trial","39224","survey-likert","90","140835","0.0-5.0-0.71","1","1","2022-11-29 19:10:41","2df368f4e41f066fd1c82c297b4a1108","139.140.208.169","Mozilla/5.0 (Macintosh; Intel Mac OS X 10_15_7) AppleWebKit/605.1.15 (KHTML, like Gecko) Version/16.1 Safari/605.1.15","Macintosh","Safari","16.1","OS X","10_15_7","[0]","","14","3",""
"1058","
    <p style=""font-size:20px;""> You have completed the experiment portion! </p>
    <p style=""font-size:20px;""> Before you are done, we would like you to answer some basic demographic questions. </p>
    <p style=""font-size:20px;""> Note that your answers to these questions will not affect your compensation/credit. </p>
    <p style=""font-size:20px;""> Click the button below to continue.</p>
    ","0","demo","39224","html-button-response","91","141899","0.0-6.0","1","1","2022-11-29 19:10:41","2df368f4e41f066fd1c82c297b4a1108","139.140.208.169","Mozilla/5.0 (Macintosh; Intel Mac OS X 10_15_7) AppleWebKit/605.1.15 (KHTML, like Gecko) Version/16.1 Safari/605.1.15","Macintosh","Safari","16.1","OS X","10_15_7","","","","",""
"6407","","{""Age"":""24"",""Gender"":""female"",""Education"":""12""}","demo","39224","survey-text","92","148322","0.0-7.0-0.0","1","1","2022-11-29 19:10:41","2df368f4e41f066fd1c82c297b4a1108","139.140.208.169","Mozilla/5.0 (Macintosh; Intel Mac OS X 10_15_7) AppleWebKit/605.1.15 (KHTML, like Gecko) Version/16.1 Safari/605.1.15","Macintosh","Safari","16.1","OS X","10_15_7","","","","",""
"1997","","{""Race"":[""Asian""]}","demo","39224","survey-multi-select","93","150323","0.0-7.0-1.0","1","1","2022-11-29 19:10:41","2df368f4e41f066fd1c82c297b4a1108","139.140.208.169","Mozilla/5.0 (Macintosh; Intel Mac OS X 10_15_7) AppleWebKit/605.1.15 (KHTML, like Gecko) Version/16.1 Safari/605.1.15","Macintosh","Safari","16.1","OS X","10_15_7","[0]","","","",""
"2862","","{""Latino"":""No"",""Alert"":""Evening""}","demo","39224","survey-multi-choice","94","153197","0.0-7.0-2.0","1","1","2022-11-29 19:10:41","2df368f4e41f066fd1c82c297b4a1108","139.140.208.169","Mozilla/5.0 (Macintosh; Intel Mac OS X 10_15_7) AppleWebKit/605.1.15 (KHTML, like Gecko) Version/16.1 Safari/605.1.15","Macintosh","Safari","16.1","OS X","10_15_7","[0,1]","","","",""
"1684","","{""Q0"":""no""}","demo","39224","survey-text","95","154890","0.0-7.0-3.0","1","1","2022-11-29 19:10:41","2df368f4e41f066fd1c82c297b4a1108","139.140.208.169","Mozilla/5.0 (Macintosh; Intel Mac OS X 10_15_7) AppleWebKit/605.1.15 (KHTML, like Gecko) Version/16.1 Safari/605.1.15","Macintosh","Safari","16.1","OS X","10_15_7","","","","",""
"1223","<p>Thank you for participating! </p><strong>Your completion code is: CXEJB7NH. Please copy-paste this code and submit it on Prolific.</strong><p>Click <a href=""https://drive.google.com/file/d/1c70cdHFlc0AaR6RujLWLJwWkv1RbHQJY/view?usp=sharing"" target=""_blank"" rel=""noopener noreferrer"">here</a> to access the debriefing form and know more about our research. <p> Please click the button below to finish the experiment and save your data.</p> <p> IMPORTANT: Please <strong>do not leave this page </strong> without clicking the button below.</p> <p> You may close the tab/window after you click the button below.","0","","","html-button-response","96","156116","0.0-8.0","1","1","2022-11-29 19:10:41","2df368f4e41f066fd1c82c297b4a1108","139.140.208.169","Mozilla/5.0 (Macintosh; Intel Mac OS X 10_15_7) AppleWebKit/605.1.15 (KHTML, like Gecko) Version/16.1 Safari/605.1.15","Macintosh","Safari","16.1","OS X","10_15_7","","","","",""
