"rt","stimulus","response","typeoftrial","subject","trial_type","trial_index","time_elapsed","internal_node_id","run_id","condition","recorded_at","source_code_version","ip","user_agent","device","browser","browser_version","platform","platform_version","question_order","practice_rating","sentence_num","rating","Experiment"
"1350","
        <p style=""font-size:20px;""> Welcome! Thank you for your interest in our study. </p>
        <p style=""font-size:20px;""> This study is being conducted by researchers at Bowdoin College.</p>
        <p style=""font-size:20px;""> In this experiment, you will be asked to rate the accuracy of English and Spanish translations.</p>
        <p style=""font-size:20px;""> The entire experiment should not last more than 20 minutes. You will be paid $3 USD for your participation. </p>
        <p style=""font-size:20px;""> Please click <a href = ""https://drive.google.com/file/d/1L92a02eEKCpaAEipmqDcBCDR7rsarqFE/view?usp=sharing"" target = ""_blank"">here</a> to read the full consent form. </p>
        <p style=""font-size:20px;""> If you agree to participate, please click the button below to continue to experiment instructions.</p>
        ","0","consent","11948","html-button-response","0","1353","0.0-0.0","1","1","2022-11-29 17:47:42","2df368f4e41f066fd1c82c297b4a1108","139.140.208.169","Mozilla/5.0 (Macintosh; Intel Mac OS X 10_15_7) AppleWebKit/605.1.15 (KHTML, like Gecko) Version/16.1 Safari/605.1.15","Macintosh","Safari","16.1","OS X","10_15_7","","","","",""
"1902","","{""ID"":""23432""}","ID","11948","survey-text","1","3272","0.0-1.0","1","1","2022-11-29 17:47:42","2df368f4e41f066fd1c82c297b4a1108","139.140.208.169","Mozilla/5.0 (Macintosh; Intel Mac OS X 10_15_7) AppleWebKit/605.1.15 (KHTML, like Gecko) Version/16.1 Safari/605.1.15","Macintosh","Safari","16.1","OS X","10_15_7","","","","",""
"840","
        <p style=""font-size:20px;""> You are about to begin the practice test. </p>
        <p style=""font-size:20px;""> On each trial, you will see a sentence in English and its corresponding Spanish translation. </p>
        <p style=""font-size:20px;""> You will rate the accuracy of the translation on a scale from ""Not at all accurate"" to ""Very accurate."" </p>
        <p style=""font-size:20px;""> If you rate the translation as ""Somewhat innaccurate"" or ""Not at all accurate,"" you will be asked to provide your own translation or a reason why the translation is inaccurate. </p>
        <p style=""font-size:20px;""> Click the button below to continue to the practice session.</p>","0","instructions","11948","html-button-response","2","4113","0.0-2.0","1","1","2022-11-29 17:47:42","2df368f4e41f066fd1c82c297b4a1108","139.140.208.169","Mozilla/5.0 (Macintosh; Intel Mac OS X 10_15_7) AppleWebKit/605.1.15 (KHTML, like Gecko) Version/16.1 Safari/605.1.15","Macintosh","Safari","16.1","OS X","10_15_7","","","","",""
"4115","You drop a bowling ball on a mircrowave <br> T&uacute tiras una bola de boliche a un horno","{""Q0"":1}","practice","11948","survey-likert","3","8230","0.0-3.0-0.0","1","1","2022-11-29 17:47:42","2df368f4e41f066fd1c82c297b4a1108","139.140.208.169","Mozilla/5.0 (Macintosh; Intel Mac OS X 10_15_7) AppleWebKit/605.1.15 (KHTML, like Gecko) Version/16.1 Safari/605.1.15","Macintosh","Safari","16.1","OS X","10_15_7","[0]","1","","",""
"3343","You drop a bowling ball on a mircrowave <br> T&uacute tiras una bola de boliche a un horno","{""Q0"":""not horno""}","practice_low_rate","11948","survey-text","4","11584","0.0-3.0-1.0-0.0","1","1","2022-11-29 17:47:42","2df368f4e41f066fd1c82c297b4a1108","139.140.208.169","Mozilla/5.0 (Macintosh; Intel Mac OS X 10_15_7) AppleWebKit/605.1.15 (KHTML, like Gecko) Version/16.1 Safari/605.1.15","Macintosh","Safari","16.1","OS X","10_15_7","","","6","",""
"4633","You drop a rock on a phone <br> T&uacute tiras una piedra a un tel&eacutefono","{""Q0"":4}","practice","11948","survey-likert","5","16220","0.0-3.0-0.1","1","1","2022-11-29 17:47:42","2df368f4e41f066fd1c82c297b4a1108","139.140.208.169","Mozilla/5.0 (Macintosh; Intel Mac OS X 10_15_7) AppleWebKit/605.1.15 (KHTML, like Gecko) Version/16.1 Safari/605.1.15","Macintosh","Safari","16.1","OS X","10_15_7","[0]","4","","",""
"5885","You see how a duck is playing with a pumpkin <br> T&uacute ves como un pato est&aacute jugando con una calabaza","{""Q0"":4}","practice","11948","survey-likert","6","22109","0.0-3.0-0.2","1","1","2022-11-29 17:47:42","2df368f4e41f066fd1c82c297b4a1108","139.140.208.169","Mozilla/5.0 (Macintosh; Intel Mac OS X 10_15_7) AppleWebKit/605.1.15 (KHTML, like Gecko) Version/16.1 Safari/605.1.15","Macintosh","Safari","16.1","OS X","10_15_7","[0]","4","","",""
"3180","You see how a tiger is playing with a goose <br> T&uacute ves como un le&oacuten come una pizza","{""Q0"":0}","practice","11948","survey-likert","7","25293","0.0-3.0-0.3","1","1","2022-11-29 17:47:42","2df368f4e41f066fd1c82c297b4a1108","139.140.208.169","Mozilla/5.0 (Macintosh; Intel Mac OS X 10_15_7) AppleWebKit/605.1.15 (KHTML, like Gecko) Version/16.1 Safari/605.1.15","Macintosh","Safari","16.1","OS X","10_15_7","[0]","0","","",""
"1757","You see how a tiger is playing with a goose <br> T&uacute ves como un le&oacuten come una pizza","{""Q0"":""nope""}","practice_low_rate","11948","survey-text","8","27058","0.0-3.0-1.3-0.3","1","1","2022-11-29 17:47:42","2df368f4e41f066fd1c82c297b4a1108","139.140.208.169","Mozilla/5.0 (Macintosh; Intel Mac OS X 10_15_7) AppleWebKit/605.1.15 (KHTML, like Gecko) Version/16.1 Safari/605.1.15","Macintosh","Safari","16.1","OS X","10_15_7","","","5","",""
"2793","You see how an artist is running <br> T&uacute ves como un artista est&aacute corriendo","{""Q0"":3}","practice","11948","survey-likert","9","29853","0.0-3.0-0.4","1","1","2022-11-29 17:47:42","2df368f4e41f066fd1c82c297b4a1108","139.140.208.169","Mozilla/5.0 (Macintosh; Intel Mac OS X 10_15_7) AppleWebKit/605.1.15 (KHTML, like Gecko) Version/16.1 Safari/605.1.15","Macintosh","Safari","16.1","OS X","10_15_7","[0]","3","","",""
"2978","You see how a teacher is drawing a picture <br> T&uacute ves como un maestro pinta una foto","{""Q0"":1}","practice","11948","survey-likert","10","32834","0.0-3.0-0.5","1","1","2022-11-29 17:47:42","2df368f4e41f066fd1c82c297b4a1108","139.140.208.169","Mozilla/5.0 (Macintosh; Intel Mac OS X 10_15_7) AppleWebKit/605.1.15 (KHTML, like Gecko) Version/16.1 Safari/605.1.15","Macintosh","Safari","16.1","OS X","10_15_7","[0]","1","","",""
"2350","You see how a teacher is drawing a picture <br> T&uacute ves como un maestro pinta una foto","{""Q0"":""not foto""}","practice_low_rate","11948","survey-text","11","35194","0.0-3.0-1.5-0.5","1","1","2022-11-29 17:47:42","2df368f4e41f066fd1c82c297b4a1108","139.140.208.169","Mozilla/5.0 (Macintosh; Intel Mac OS X 10_15_7) AppleWebKit/605.1.15 (KHTML, like Gecko) Version/16.1 Safari/605.1.15","Macintosh","Safari","16.1","OS X","10_15_7","","","4","",""
"1113","<p style=""font-size:20px;"">You have now completed the practice session! </p>
        <p style=""font-size:20px;"">You will now move on to the main experiment. </p>
        <p style=""font-size:20px;"">Please click the button below to continue. </p>","0","movetoexp","11948","html-button-response","12","36309","0.0-4.0","1","1","2022-11-29 17:47:42","2df368f4e41f066fd1c82c297b4a1108","139.140.208.169","Mozilla/5.0 (Macintosh; Intel Mac OS X 10_15_7) AppleWebKit/605.1.15 (KHTML, like Gecko) Version/16.1 Safari/605.1.15","Macintosh","Safari","16.1","OS X","10_15_7","","","","",""
"3437","You see how an actress is taking a microphone <br> T&uacute ves como una actriz est&aacute agarrando el micr&oacutefono","{""Q0"":3}","trial","11948","survey-likert","13","39750","0.0-5.0-0.0","1","1","2022-11-29 17:47:42","2df368f4e41f066fd1c82c297b4a1108","139.140.208.169","Mozilla/5.0 (Macintosh; Intel Mac OS X 10_15_7) AppleWebKit/605.1.15 (KHTML, like Gecko) Version/16.1 Safari/605.1.15","Macintosh","Safari","16.1","OS X","10_15_7","[0]","","51","3",""
"1045","You see how a police officer is talking on the phone <br> T&uacute ves como un polic&iacutea est&aacute hablando por el tel&eacutefono","{""Q0"":2}","trial","11948","survey-likert","14","40799","0.0-5.0-0.1","1","1","2022-11-29 17:47:42","2df368f4e41f066fd1c82c297b4a1108","139.140.208.169","Mozilla/5.0 (Macintosh; Intel Mac OS X 10_15_7) AppleWebKit/605.1.15 (KHTML, like Gecko) Version/16.1 Safari/605.1.15","Macintosh","Safari","16.1","OS X","10_15_7","[0]","","62","2",""
"1365","You drop a bowling ball on a rice cake <br> T&uacute tiras una bola de boliche a una tortita de arroz","{""Q0"":4}","trial","11948","survey-likert","15","42168","0.0-5.0-0.2","1","1","2022-11-29 17:47:42","2df368f4e41f066fd1c82c297b4a1108","139.140.208.169","Mozilla/5.0 (Macintosh; Intel Mac OS X 10_15_7) AppleWebKit/605.1.15 (KHTML, like Gecko) Version/16.1 Safari/605.1.15","Macintosh","Safari","16.1","OS X","10_15_7","[0]","","18","4",""
"2432","You see how a dentist is drinking a can of cola <br> T&uacute ves como un dentista est&aacute bebiendo una lata de cola","{""Q0"":0}","trial","11948","survey-likert","16","44604","0.0-5.0-0.3","1","1","2022-11-29 17:47:42","2df368f4e41f066fd1c82c297b4a1108","139.140.208.169","Mozilla/5.0 (Macintosh; Intel Mac OS X 10_15_7) AppleWebKit/605.1.15 (KHTML, like Gecko) Version/16.1 Safari/605.1.15","Macintosh","Safari","16.1","OS X","10_15_7","[0]","","47","0",""
"2830","You see how a dentist is drinking a can of cola <br> T&uacute ves como un dentista est&aacute bebiendo una lata de cola","{""Q0"":""explanation""}","low_rate","11948","survey-text","17","47444","0.0-5.0-1.3-0.3","1","1","2022-11-29 17:47:42","2df368f4e41f066fd1c82c297b4a1108","139.140.208.169","Mozilla/5.0 (Macintosh; Intel Mac OS X 10_15_7) AppleWebKit/605.1.15 (KHTML, like Gecko) Version/16.1 Safari/605.1.15","Macintosh","Safari","16.1","OS X","10_15_7","","","47","",""
"1328","You see how a man is boiling potatoes <br> T&uacute ves a un hombre est&aacute hirviendo papas","{""Q0"":1}","trial","11948","survey-likert","18","48774","0.0-5.0-0.4","1","1","2022-11-29 17:47:42","2df368f4e41f066fd1c82c297b4a1108","139.140.208.169","Mozilla/5.0 (Macintosh; Intel Mac OS X 10_15_7) AppleWebKit/605.1.15 (KHTML, like Gecko) Version/16.1 Safari/605.1.15","Macintosh","Safari","16.1","OS X","10_15_7","[0]","","46","1",""
"2635","You see how a man is boiling potatoes <br> T&uacute ves a un hombre est&aacute hirviendo papas","{""Q0"":""explanation""}","low_rate","11948","survey-text","19","51418","0.0-5.0-1.4-0.4","1","1","2022-11-29 17:47:42","2df368f4e41f066fd1c82c297b4a1108","139.140.208.169","Mozilla/5.0 (Macintosh; Intel Mac OS X 10_15_7) AppleWebKit/605.1.15 (KHTML, like Gecko) Version/16.1 Safari/605.1.15","Macintosh","Safari","16.1","OS X","10_15_7","","","46","",""
"1198","You drop a bowling ball on an empty can of beer <br> T&uacute tiras una bola de boliche a una lata de cerveza vac&iacutea","{""Q0"":3}","trial","11948","survey-likert","20","52618","0.0-5.0-0.5","1","1","2022-11-29 17:47:42","2df368f4e41f066fd1c82c297b4a1108","139.140.208.169","Mozilla/5.0 (Macintosh; Intel Mac OS X 10_15_7) AppleWebKit/605.1.15 (KHTML, like Gecko) Version/16.1 Safari/605.1.15","Macintosh","Safari","16.1","OS X","10_15_7","[0]","","3","3",""
"1151","You see how a woman is paying with a debit card <br> T&uacute ves como una mujer est&aacute pagando con una tarjeta de d&eacutebito","{""Q0"":2}","trial","11948","survey-likert","21","53774","0.0-5.0-0.6","1","1","2022-11-29 17:47:42","2df368f4e41f066fd1c82c297b4a1108","139.140.208.169","Mozilla/5.0 (Macintosh; Intel Mac OS X 10_15_7) AppleWebKit/605.1.15 (KHTML, like Gecko) Version/16.1 Safari/605.1.15","Macintosh","Safari","16.1","OS X","10_15_7","[0]","","64","2",""
"1291","You see how a pilot is reading a book <br> T&uacute ves como un piloto est&aacute leyendo un libro","{""Q0"":4}","trial","11948","survey-likert","22","55069","0.0-5.0-0.7","1","1","2022-11-29 17:47:42","2df368f4e41f066fd1c82c297b4a1108","139.140.208.169","Mozilla/5.0 (Macintosh; Intel Mac OS X 10_15_7) AppleWebKit/605.1.15 (KHTML, like Gecko) Version/16.1 Safari/605.1.15","Macintosh","Safari","16.1","OS X","10_15_7","[0]","","61","4",""
"956","You see how an elephant is eating a watermelon <br> T&uacute ves como un elefante est&aacute comiendo una sand&iacutea","{""Q0"":3}","trial","11948","survey-likert","23","56030","0.0-5.0-0.8","1","1","2022-11-29 17:47:42","2df368f4e41f066fd1c82c297b4a1108","139.140.208.169","Mozilla/5.0 (Macintosh; Intel Mac OS X 10_15_7) AppleWebKit/605.1.15 (KHTML, like Gecko) Version/16.1 Safari/605.1.15","Macintosh","Safari","16.1","OS X","10_15_7","[0]","","31","3",""
"981","You see how a man is shaving his beard <br> T&uacute ves como un hombre se est&aacute afeitando la barba","{""Q0"":2}","trial","11948","survey-likert","24","57015","0.0-5.0-0.9","1","1","2022-11-29 17:47:42","2df368f4e41f066fd1c82c297b4a1108","139.140.208.169","Mozilla/5.0 (Macintosh; Intel Mac OS X 10_15_7) AppleWebKit/605.1.15 (KHTML, like Gecko) Version/16.1 Safari/605.1.15","Macintosh","Safari","16.1","OS X","10_15_7","[0]","","43","2",""
"973","You drop a fork on the plate <br> T&uacute tiras un tenedor al plato","{""Q0"":3}","trial","11948","survey-likert","25","57994","0.0-5.0-0.10","1","1","2022-11-29 17:47:42","2df368f4e41f066fd1c82c297b4a1108","139.140.208.169","Mozilla/5.0 (Macintosh; Intel Mac OS X 10_15_7) AppleWebKit/605.1.15 (KHTML, like Gecko) Version/16.1 Safari/605.1.15","Macintosh","Safari","16.1","OS X","10_15_7","[0]","","26","3",""
"2145","You see how a donkey is drinking water <br> T&uacute ves como un burro est&aacute bebiendo agua","{""Q0"":4}","trial","11948","survey-likert","26","60143","0.0-5.0-0.11","1","1","2022-11-29 17:47:42","2df368f4e41f066fd1c82c297b4a1108","139.140.208.169","Mozilla/5.0 (Macintosh; Intel Mac OS X 10_15_7) AppleWebKit/605.1.15 (KHTML, like Gecko) Version/16.1 Safari/605.1.15","Macintosh","Safari","16.1","OS X","10_15_7","[0]","","45","4",""
"1788","You drop a bowling ball on glasses <br> T&uacute tiras una bola de boliche a unas gafas","{""Q0"":2}","trial","11948","survey-likert","27","61935","0.0-5.0-0.12","1","1","2022-11-29 17:47:42","2df368f4e41f066fd1c82c297b4a1108","139.140.208.169","Mozilla/5.0 (Macintosh; Intel Mac OS X 10_15_7) AppleWebKit/605.1.15 (KHTML, like Gecko) Version/16.1 Safari/605.1.15","Macintosh","Safari","16.1","OS X","10_15_7","[0]","","9","2",""
"1470","You see how a puppy is playing with a ball <br> T&uacute ves como un cachorro est&aacute jugando con una pelota","{""Q0"":0}","trial","11948","survey-likert","28","63410","0.0-5.0-0.13","1","1","2022-11-29 17:47:42","2df368f4e41f066fd1c82c297b4a1108","139.140.208.169","Mozilla/5.0 (Macintosh; Intel Mac OS X 10_15_7) AppleWebKit/605.1.15 (KHTML, like Gecko) Version/16.1 Safari/605.1.15","Macintosh","Safari","16.1","OS X","10_15_7","[0]","","34","0",""
"2579","You see how a puppy is playing with a ball <br> T&uacute ves como un cachorro est&aacute jugando con una pelota","{""Q0"":""explanation""}","low_rate","11948","survey-text","29","65997","0.0-5.0-1.13-0.13","1","1","2022-11-29 17:47:42","2df368f4e41f066fd1c82c297b4a1108","139.140.208.169","Mozilla/5.0 (Macintosh; Intel Mac OS X 10_15_7) AppleWebKit/605.1.15 (KHTML, like Gecko) Version/16.1 Safari/605.1.15","Macintosh","Safari","16.1","OS X","10_15_7","","","34","",""
"1417","You drop a towel on the TV <br> T&uacute tiras una toalla a la televisi&oacuten","{""Q0"":1}","trial","11948","survey-likert","30","67416","0.0-5.0-0.14","1","1","2022-11-29 17:47:42","2df368f4e41f066fd1c82c297b4a1108","139.140.208.169","Mozilla/5.0 (Macintosh; Intel Mac OS X 10_15_7) AppleWebKit/605.1.15 (KHTML, like Gecko) Version/16.1 Safari/605.1.15","Macintosh","Safari","16.1","OS X","10_15_7","[0]","","53","1",""
"2799","You drop a towel on the TV <br> T&uacute tiras una toalla a la televisi&oacuten","{""Q0"":""explanation""}","low_rate","11948","survey-text","31","70224","0.0-5.0-1.14-0.14","1","1","2022-11-29 17:47:42","2df368f4e41f066fd1c82c297b4a1108","139.140.208.169","Mozilla/5.0 (Macintosh; Intel Mac OS X 10_15_7) AppleWebKit/605.1.15 (KHTML, like Gecko) Version/16.1 Safari/605.1.15","Macintosh","Safari","16.1","OS X","10_15_7","","","53","",""
"1213","You see how a panda is resting on a tree <br> T&uacute ves como un panda est&aacute descansando en un &aacuterbol","{""Q0"":2}","trial","11948","survey-likert","32","71439","0.0-5.0-0.15","1","1","2022-11-29 17:47:42","2df368f4e41f066fd1c82c297b4a1108","139.140.208.169","Mozilla/5.0 (Macintosh; Intel Mac OS X 10_15_7) AppleWebKit/605.1.15 (KHTML, like Gecko) Version/16.1 Safari/605.1.15","Macintosh","Safari","16.1","OS X","10_15_7","[0]","","57","2",""
"1021","You see how a teenage girl is playing the piano <br> T&uacute ves como una ni&ntildea adolescente est&aacute tocando el piano","{""Q0"":3}","trial","11948","survey-likert","33","72465","0.0-5.0-0.16","1","1","2022-11-29 17:47:42","2df368f4e41f066fd1c82c297b4a1108","139.140.208.169","Mozilla/5.0 (Macintosh; Intel Mac OS X 10_15_7) AppleWebKit/605.1.15 (KHTML, like Gecko) Version/16.1 Safari/605.1.15","Macintosh","Safari","16.1","OS X","10_15_7","[0]","","54","3",""
"1112","You see how a butterfly is sitting on a flower <br> T&uacute ves como una mariposa est&aacute reposando en una flor","{""Q0"":4}","trial","11948","survey-likert","34","73582","0.0-5.0-0.17","1","1","2022-11-29 17:47:42","2df368f4e41f066fd1c82c297b4a1108","139.140.208.169","Mozilla/5.0 (Macintosh; Intel Mac OS X 10_15_7) AppleWebKit/605.1.15 (KHTML, like Gecko) Version/16.1 Safari/605.1.15","Macintosh","Safari","16.1","OS X","10_15_7","[0]","","59","4",""
"1585","You drop a keyboard on the bed <br> T&uacute tiras un teclado a la cama","{""Q0"":3}","trial","11948","survey-likert","35","75171","0.0-5.0-0.18","1","1","2022-11-29 17:47:42","2df368f4e41f066fd1c82c297b4a1108","139.140.208.169","Mozilla/5.0 (Macintosh; Intel Mac OS X 10_15_7) AppleWebKit/605.1.15 (KHTML, like Gecko) Version/16.1 Safari/605.1.15","Macintosh","Safari","16.1","OS X","10_15_7","[0]","","36","3",""
"1290","You drop a bowling ball on an egg flan <br> T&uacute tiras una bola de boliche a un flan","{""Q0"":3}","trial","11948","survey-likert","36","76466","0.0-5.0-0.19","1","1","2022-11-29 17:47:42","2df368f4e41f066fd1c82c297b4a1108","139.140.208.169","Mozilla/5.0 (Macintosh; Intel Mac OS X 10_15_7) AppleWebKit/605.1.15 (KHTML, like Gecko) Version/16.1 Safari/605.1.15","Macintosh","Safari","16.1","OS X","10_15_7","[0]","","7","3",""
"1142","You drop a bowling ball on a porcelain figure <br> T&uacute tiras una bola de boliche a una figura de porcelana","{""Q0"":2}","trial","11948","survey-likert","37","77614","0.0-5.0-0.20","1","1","2022-11-29 17:47:42","2df368f4e41f066fd1c82c297b4a1108","139.140.208.169","Mozilla/5.0 (Macintosh; Intel Mac OS X 10_15_7) AppleWebKit/605.1.15 (KHTML, like Gecko) Version/16.1 Safari/605.1.15","Macintosh","Safari","16.1","OS X","10_15_7","[0]","","1","2",""
"1142","You see how a musician is playing a guitar <br> T&uacute ves como un m&uacutesico est&aacute tocando la guitarra","{""Q0"":3}","trial","11948","survey-likert","38","78762","0.0-5.0-0.21","1","1","2022-11-29 17:47:42","2df368f4e41f066fd1c82c297b4a1108","139.140.208.169","Mozilla/5.0 (Macintosh; Intel Mac OS X 10_15_7) AppleWebKit/605.1.15 (KHTML, like Gecko) Version/16.1 Safari/605.1.15","Macintosh","Safari","16.1","OS X","10_15_7","[0]","","27","3",""
"988","You see how a mouse is eating cheese <br> T&uacute ves como el rat&oacuten est&aacute comiendo queso","{""Q0"":3}","trial","11948","survey-likert","39","79755","0.0-5.0-0.22","1","1","2022-11-29 17:47:42","2df368f4e41f066fd1c82c297b4a1108","139.140.208.169","Mozilla/5.0 (Macintosh; Intel Mac OS X 10_15_7) AppleWebKit/605.1.15 (KHTML, like Gecko) Version/16.1 Safari/605.1.15","Macintosh","Safari","16.1","OS X","10_15_7","[0]","","56","3",""
"1641","You drop a bowling ball on a chocolate muffin <br> T&uacute tiras una bola de boliche a una magdalena de chocolate","{""Q0"":3}","trial","11948","survey-likert","40","81401","0.0-5.0-0.23","1","1","2022-11-29 17:47:42","2df368f4e41f066fd1c82c297b4a1108","139.140.208.169","Mozilla/5.0 (Macintosh; Intel Mac OS X 10_15_7) AppleWebKit/605.1.15 (KHTML, like Gecko) Version/16.1 Safari/605.1.15","Macintosh","Safari","16.1","OS X","10_15_7","[0]","","16","3",""
"1428","You drop a bowling ball on an iPAD <br> T&uacute tiras una bola de boliche a un iPad","{""Q0"":4}","trial","11948","survey-likert","41","82834","0.0-5.0-0.24","1","1","2022-11-29 17:47:42","2df368f4e41f066fd1c82c297b4a1108","139.140.208.169","Mozilla/5.0 (Macintosh; Intel Mac OS X 10_15_7) AppleWebKit/605.1.15 (KHTML, like Gecko) Version/16.1 Safari/605.1.15","Macintosh","Safari","16.1","OS X","10_15_7","[0]","","12","4",""
"1396","You drop a bowling ball on a ceramic plate <br> T&uacute tiras una bola de boliche a un plato de cer&aacutemica","{""Q0"":3}","trial","11948","survey-likert","42","84235","0.0-5.0-0.25","1","1","2022-11-29 17:47:42","2df368f4e41f066fd1c82c297b4a1108","139.140.208.169","Mozilla/5.0 (Macintosh; Intel Mac OS X 10_15_7) AppleWebKit/605.1.15 (KHTML, like Gecko) Version/16.1 Safari/605.1.15","Macintosh","Safari","16.1","OS X","10_15_7","[0]","","19","3",""
"1136","You see how a president is writing in the notebook <br> T&uacute ves como un presidente est&aacute escribiendo en la libreta","{""Q0"":3}","trial","11948","survey-likert","43","85375","0.0-5.0-0.26","1","1","2022-11-29 17:47:42","2df368f4e41f066fd1c82c297b4a1108","139.140.208.169","Mozilla/5.0 (Macintosh; Intel Mac OS X 10_15_7) AppleWebKit/605.1.15 (KHTML, like Gecko) Version/16.1 Safari/605.1.15","Macintosh","Safari","16.1","OS X","10_15_7","[0]","","63","3",""
"1225","You drop a bowling ball on a mirror <br> T&uacute tiras una bola de boliche a un espejo","{""Q0"":3}","trial","11948","survey-likert","44","86605","0.0-5.0-0.27","1","1","2022-11-29 17:47:42","2df368f4e41f066fd1c82c297b4a1108","139.140.208.169","Mozilla/5.0 (Macintosh; Intel Mac OS X 10_15_7) AppleWebKit/605.1.15 (KHTML, like Gecko) Version/16.1 Safari/605.1.15","Macintosh","Safari","16.1","OS X","10_15_7","[0]","","15","3",""
"2055","You see how a cat is drinking water from a bowl <br> T&uacute ves como un gato est&aacute bebiendo agua de un cuenco","{""Q0"":4}","trial","11948","survey-likert","45","88666","0.0-5.0-0.28","1","1","2022-11-29 17:47:42","2df368f4e41f066fd1c82c297b4a1108","139.140.208.169","Mozilla/5.0 (Macintosh; Intel Mac OS X 10_15_7) AppleWebKit/605.1.15 (KHTML, like Gecko) Version/16.1 Safari/605.1.15","Macintosh","Safari","16.1","OS X","10_15_7","[0]","","28","4",""
"1306","You drop a bowling ball on a tomato <br> T&uacute tiras una bola de boliche a un tomate","{""Q0"":4}","trial","11948","survey-likert","46","89978","0.0-5.0-0.29","1","1","2022-11-29 17:47:42","2df368f4e41f066fd1c82c297b4a1108","139.140.208.169","Mozilla/5.0 (Macintosh; Intel Mac OS X 10_15_7) AppleWebKit/605.1.15 (KHTML, like Gecko) Version/16.1 Safari/605.1.15","Macintosh","Safari","16.1","OS X","10_15_7","[0]","","23","4",""
"1460","You see how a woman is taking money out of a wallet <br> T&uacute ves como una mujer est&aacute sacando dinero de su billetera","{""Q0"":0}","trial","11948","survey-likert","47","91444","0.0-5.0-0.30","1","1","2022-11-29 17:47:42","2df368f4e41f066fd1c82c297b4a1108","139.140.208.169","Mozilla/5.0 (Macintosh; Intel Mac OS X 10_15_7) AppleWebKit/605.1.15 (KHTML, like Gecko) Version/16.1 Safari/605.1.15","Macintosh","Safari","16.1","OS X","10_15_7","[0]","","44","0",""
"3094","You see how a woman is taking money out of a wallet <br> T&uacute ves como una mujer est&aacute sacando dinero de su billetera","{""Q0"":""explanation""}","low_rate","11948","survey-text","48","94548","0.0-5.0-1.30-0.30","1","1","2022-11-29 17:47:42","2df368f4e41f066fd1c82c297b4a1108","139.140.208.169","Mozilla/5.0 (Macintosh; Intel Mac OS X 10_15_7) AppleWebKit/605.1.15 (KHTML, like Gecko) Version/16.1 Safari/605.1.15","Macintosh","Safari","16.1","OS X","10_15_7","","","44","",""
"1165","You drop a bowling ball on a blackberry <br> T&uacute tiras una bola de boliche a una mora","{""Q0"":1}","trial","11948","survey-likert","49","95715","0.0-5.0-0.31","1","1","2022-11-29 17:47:42","2df368f4e41f066fd1c82c297b4a1108","139.140.208.169","Mozilla/5.0 (Macintosh; Intel Mac OS X 10_15_7) AppleWebKit/605.1.15 (KHTML, like Gecko) Version/16.1 Safari/605.1.15","Macintosh","Safari","16.1","OS X","10_15_7","[0]","","8","1",""
"2139","You drop a bowling ball on a blackberry <br> T&uacute tiras una bola de boliche a una mora","{""Q0"":""explanation""}","low_rate","11948","survey-text","50","97864","0.0-5.0-1.31-0.31","1","1","2022-11-29 17:47:42","2df368f4e41f066fd1c82c297b4a1108","139.140.208.169","Mozilla/5.0 (Macintosh; Intel Mac OS X 10_15_7) AppleWebKit/605.1.15 (KHTML, like Gecko) Version/16.1 Safari/605.1.15","Macintosh","Safari","16.1","OS X","10_15_7","","","8","",""
"1181","You drop a bowling ball on a donut <br> T&uacute tiras una bola de boliche a una rosquilla","{""Q0"":3}","trial","11948","survey-likert","51","99047","0.0-5.0-0.32","1","1","2022-11-29 17:47:42","2df368f4e41f066fd1c82c297b4a1108","139.140.208.169","Mozilla/5.0 (Macintosh; Intel Mac OS X 10_15_7) AppleWebKit/605.1.15 (KHTML, like Gecko) Version/16.1 Safari/605.1.15","Macintosh","Safari","16.1","OS X","10_15_7","[0]","","17","3",""
"1843","You drop a bowling ball on a piece of cake <br> T&uacute tiras una bola de boliche a un trozo de pastel","{""Q0"":2}","trial","11948","survey-likert","52","100895","0.0-5.0-0.33","1","1","2022-11-29 17:47:42","2df368f4e41f066fd1c82c297b4a1108","139.140.208.169","Mozilla/5.0 (Macintosh; Intel Mac OS X 10_15_7) AppleWebKit/605.1.15 (KHTML, like Gecko) Version/16.1 Safari/605.1.15","Macintosh","Safari","16.1","OS X","10_15_7","[0]","","2","2",""
"1192","You drop a cabbage on the table <br> T&uacute tiras una col a la mesa","{""Q0"":3}","trial","11948","survey-likert","53","102092","0.0-5.0-0.34","1","1","2022-11-29 17:47:42","2df368f4e41f066fd1c82c297b4a1108","139.140.208.169","Mozilla/5.0 (Macintosh; Intel Mac OS X 10_15_7) AppleWebKit/605.1.15 (KHTML, like Gecko) Version/16.1 Safari/605.1.15","Macintosh","Safari","16.1","OS X","10_15_7","[0]","","35","3",""
"1095","You see how a boy is peeling a banana <br> T&uacute ves como un ni&ntildeo est&aacute pelando una banana","{""Q0"":3}","trial","11948","survey-likert","54","103193","0.0-5.0-0.35","1","1","2022-11-29 17:47:42","2df368f4e41f066fd1c82c297b4a1108","139.140.208.169","Mozilla/5.0 (Macintosh; Intel Mac OS X 10_15_7) AppleWebKit/605.1.15 (KHTML, like Gecko) Version/16.1 Safari/605.1.15","Macintosh","Safari","16.1","OS X","10_15_7","[0]","","30","3",""
"1509","You drop a bowling ball on a light bulb <br> T&uacute tiras una bola de boliche a una bombilla","{""Q0"":2}","trial","11948","survey-likert","55","104707","0.0-5.0-0.36","1","1","2022-11-29 17:47:42","2df368f4e41f066fd1c82c297b4a1108","139.140.208.169","Mozilla/5.0 (Macintosh; Intel Mac OS X 10_15_7) AppleWebKit/605.1.15 (KHTML, like Gecko) Version/16.1 Safari/605.1.15","Macintosh","Safari","16.1","OS X","10_15_7","[0]","","14","2",""
"1412","You see how a kitten is playing in the sandbox <br> T&uacute ves como un gatito est&aacute jugando en la caja de arena","{""Q0"":3}","trial","11948","survey-likert","56","106124","0.0-5.0-0.37","1","1","2022-11-29 17:47:42","2df368f4e41f066fd1c82c297b4a1108","139.140.208.169","Mozilla/5.0 (Macintosh; Intel Mac OS X 10_15_7) AppleWebKit/605.1.15 (KHTML, like Gecko) Version/16.1 Safari/605.1.15","Macintosh","Safari","16.1","OS X","10_15_7","[0]","","52","3",""
"1097","You see how a doctor is taking a stethoscope <br> T&uacute ves como un doctor est&aacute agarrando un estetoscopio","{""Q0"":4}","trial","11948","survey-likert","57","107234","0.0-5.0-0.38","1","1","2022-11-29 17:47:42","2df368f4e41f066fd1c82c297b4a1108","139.140.208.169","Mozilla/5.0 (Macintosh; Intel Mac OS X 10_15_7) AppleWebKit/605.1.15 (KHTML, like Gecko) Version/16.1 Safari/605.1.15","Macintosh","Safari","16.1","OS X","10_15_7","[0]","","49","4",""
"1107","You drop a remote on the rug <br> T&uacute tiras un control remoto a la alfombra","{""Q0"":4}","trial","11948","survey-likert","58","108349","0.0-5.0-0.39","1","1","2022-11-29 17:47:42","2df368f4e41f066fd1c82c297b4a1108","139.140.208.169","Mozilla/5.0 (Macintosh; Intel Mac OS X 10_15_7) AppleWebKit/605.1.15 (KHTML, like Gecko) Version/16.1 Safari/605.1.15","Macintosh","Safari","16.1","OS X","10_15_7","[0]","","39","4",""
"1273","You drop a thermometer on the box <br> T&uacute tiras un term&oacutemetro a la caja","{""Q0"":0}","trial","11948","survey-likert","59","109628","0.0-5.0-0.40","1","1","2022-11-29 17:47:42","2df368f4e41f066fd1c82c297b4a1108","139.140.208.169","Mozilla/5.0 (Macintosh; Intel Mac OS X 10_15_7) AppleWebKit/605.1.15 (KHTML, like Gecko) Version/16.1 Safari/605.1.15","Macintosh","Safari","16.1","OS X","10_15_7","[0]","","70","0",""
"2179","You drop a thermometer on the box <br> T&uacute tiras un term&oacutemetro a la caja","{""Q0"":""explanation""}","low_rate","11948","survey-text","60","111817","0.0-5.0-1.40-0.40","1","1","2022-11-29 17:47:42","2df368f4e41f066fd1c82c297b4a1108","139.140.208.169","Mozilla/5.0 (Macintosh; Intel Mac OS X 10_15_7) AppleWebKit/605.1.15 (KHTML, like Gecko) Version/16.1 Safari/605.1.15","Macintosh","Safari","16.1","OS X","10_15_7","","","70","",""
"1229","You drop a toothbrush on the sponge <br> T&uacute tiras un cepillo de dientes en la esponja","{""Q0"":2}","trial","11948","survey-likert","61","113050","0.0-5.0-0.41","1","1","2022-11-29 17:47:42","2df368f4e41f066fd1c82c297b4a1108","139.140.208.169","Mozilla/5.0 (Macintosh; Intel Mac OS X 10_15_7) AppleWebKit/605.1.15 (KHTML, like Gecko) Version/16.1 Safari/605.1.15","Macintosh","Safari","16.1","OS X","10_15_7","[0]","","25","2",""
"1052","You see how an old man is hammering a nail <br> T&uacute ves como un hombre anciano est&aacute martillando un clavo","{""Q0"":3}","trial","11948","survey-likert","62","114108","0.0-5.0-0.42","1","1","2022-11-29 17:47:42","2df368f4e41f066fd1c82c297b4a1108","139.140.208.169","Mozilla/5.0 (Macintosh; Intel Mac OS X 10_15_7) AppleWebKit/605.1.15 (KHTML, like Gecko) Version/16.1 Safari/605.1.15","Macintosh","Safari","16.1","OS X","10_15_7","[0]","","29","3",""
"1282","You see how an astronaut is putting on a space suit <br> T&uacute ves como un astronauta se est&aacute poniendo su traje espacial","{""Q0"":3}","trial","11948","survey-likert","63","115395","0.0-5.0-0.43","1","1","2022-11-29 17:47:42","2df368f4e41f066fd1c82c297b4a1108","139.140.208.169","Mozilla/5.0 (Macintosh; Intel Mac OS X 10_15_7) AppleWebKit/605.1.15 (KHTML, like Gecko) Version/16.1 Safari/605.1.15","Macintosh","Safari","16.1","OS X","10_15_7","[0]","","33","3",""
"3047","You drop a bowling ball on a paper cup <br> T&uacute tiras una bola de boliche a un vaso de papel","{""Q0"":4}","trial","11948","survey-likert","64","118449","0.0-5.0-0.44","1","1","2022-11-29 17:47:42","2df368f4e41f066fd1c82c297b4a1108","139.140.208.169","Mozilla/5.0 (Macintosh; Intel Mac OS X 10_15_7) AppleWebKit/605.1.15 (KHTML, like Gecko) Version/16.1 Safari/605.1.15","Macintosh","Safari","16.1","OS X","10_15_7","[0]","","24","4",""
"1061","You drop a watch on the laptop <br> T&uacute tiras un reloj al port&aacutetil","{""Q0"":2}","trial","11948","survey-likert","65","119516","0.0-5.0-0.45","1","1","2022-11-29 17:47:42","2df368f4e41f066fd1c82c297b4a1108","139.140.208.169","Mozilla/5.0 (Macintosh; Intel Mac OS X 10_15_7) AppleWebKit/605.1.15 (KHTML, like Gecko) Version/16.1 Safari/605.1.15","Macintosh","Safari","16.1","OS X","10_15_7","[0]","","37","2",""
"1192","You drop a bowling ball on a wine glass <br> T&uacute tiras una bola de boliche a una copa de vino","{""Q0"":3}","trial","11948","survey-likert","66","120714","0.0-5.0-0.46","1","1","2022-11-29 17:47:42","2df368f4e41f066fd1c82c297b4a1108","139.140.208.169","Mozilla/5.0 (Macintosh; Intel Mac OS X 10_15_7) AppleWebKit/605.1.15 (KHTML, like Gecko) Version/16.1 Safari/605.1.15","Macintosh","Safari","16.1","OS X","10_15_7","[0]","","5","3",""
"1469","You see how a giraffe is playing with a zebra <br> T&uacute ves como una jirafa est&aacute jugando con una cebra","{""Q0"":4}","trial","11948","survey-likert","67","122189","0.0-5.0-0.47","1","1","2022-11-29 17:47:42","2df368f4e41f066fd1c82c297b4a1108","139.140.208.169","Mozilla/5.0 (Macintosh; Intel Mac OS X 10_15_7) AppleWebKit/605.1.15 (KHTML, like Gecko) Version/16.1 Safari/605.1.15","Macintosh","Safari","16.1","OS X","10_15_7","[0]","","65","4",""
"1225","You drop a bowling ball on an iPhone <br> T&uacute tiras una bola de boliche a un iPhone","{""Q0"":1}","trial","11948","survey-likert","68","123420","0.0-5.0-0.48","1","1","2022-11-29 17:47:42","2df368f4e41f066fd1c82c297b4a1108","139.140.208.169","Mozilla/5.0 (Macintosh; Intel Mac OS X 10_15_7) AppleWebKit/605.1.15 (KHTML, like Gecko) Version/16.1 Safari/605.1.15","Macintosh","Safari","16.1","OS X","10_15_7","[0]","","13","1",""
"4038","You drop a bowling ball on an iPhone <br> T&uacute tiras una bola de boliche a un iPhone","{""Q0"":""explanation""}","low_rate","11948","survey-text","69","127473","0.0-5.0-1.48-0.48","1","1","2022-11-29 17:47:42","2df368f4e41f066fd1c82c297b4a1108","139.140.208.169","Mozilla/5.0 (Macintosh; Intel Mac OS X 10_15_7) AppleWebKit/605.1.15 (KHTML, like Gecko) Version/16.1 Safari/605.1.15","Macintosh","Safari","16.1","OS X","10_15_7","","","13","",""
"1784","You drop a bowling ball on a piece of sushi <br> T&uacute tiras una bola de boliche a un pedazo de sushi","{""Q0"":0}","trial","11948","survey-likert","70","129260","0.0-5.0-0.49","1","1","2022-11-29 17:47:42","2df368f4e41f066fd1c82c297b4a1108","139.140.208.169","Mozilla/5.0 (Macintosh; Intel Mac OS X 10_15_7) AppleWebKit/605.1.15 (KHTML, like Gecko) Version/16.1 Safari/605.1.15","Macintosh","Safari","16.1","OS X","10_15_7","[0]","","21","0",""
"2274","You drop a bowling ball on a piece of sushi <br> T&uacute tiras una bola de boliche a un pedazo de sushi","{""Q0"":""explanation""}","low_rate","11948","survey-text","71","131546","0.0-5.0-1.49-0.49","1","1","2022-11-29 17:47:42","2df368f4e41f066fd1c82c297b4a1108","139.140.208.169","Mozilla/5.0 (Macintosh; Intel Mac OS X 10_15_7) AppleWebKit/605.1.15 (KHTML, like Gecko) Version/16.1 Safari/605.1.15","Macintosh","Safari","16.1","OS X","10_15_7","","","21","",""
"1319","You see how a parrot is eating an apple <br> T&uacute ves como un loro est&aacute comiendo una manzana","{""Q0"":3}","trial","11948","survey-likert","72","132868","0.0-5.0-0.50","1","1","2022-11-29 17:47:42","2df368f4e41f066fd1c82c297b4a1108","139.140.208.169","Mozilla/5.0 (Macintosh; Intel Mac OS X 10_15_7) AppleWebKit/605.1.15 (KHTML, like Gecko) Version/16.1 Safari/605.1.15","Macintosh","Safari","16.1","OS X","10_15_7","[0]","","58","3",""
"1265","You drop a cushion on the magazine <br> T&uacute tiras un coj&iacuten a la revista","{""Q0"":3}","trial","11948","survey-likert","73","134140","0.0-5.0-0.51","1","1","2022-11-29 17:47:42","2df368f4e41f066fd1c82c297b4a1108","139.140.208.169","Mozilla/5.0 (Macintosh; Intel Mac OS X 10_15_7) AppleWebKit/605.1.15 (KHTML, like Gecko) Version/16.1 Safari/605.1.15","Macintosh","Safari","16.1","OS X","10_15_7","[0]","","38","3",""
"1224","You drop a bowling ball on a cracker <br> T&uacute tiras una bola de boliche a una galleta","{""Q0"":4}","trial","11948","survey-likert","74","135370","0.0-5.0-0.52","1","1","2022-11-29 17:47:42","2df368f4e41f066fd1c82c297b4a1108","139.140.208.169","Mozilla/5.0 (Macintosh; Intel Mac OS X 10_15_7) AppleWebKit/605.1.15 (KHTML, like Gecko) Version/16.1 Safari/605.1.15","Macintosh","Safari","16.1","OS X","10_15_7","[0]","","4","4",""
"1833","You drop a bowling ball on a tile <br> T&uacute tiras una bola de boliche a una baldosa","{""Q0"":4}","trial","11948","survey-likert","75","137210","0.0-5.0-0.53","1","1","2022-11-29 17:47:42","2df368f4e41f066fd1c82c297b4a1108","139.140.208.169","Mozilla/5.0 (Macintosh; Intel Mac OS X 10_15_7) AppleWebKit/605.1.15 (KHTML, like Gecko) Version/16.1 Safari/605.1.15","Macintosh","Safari","16.1","OS X","10_15_7","[0]","","22","4",""
"1405","You drop a needle on the mouse pad <br> T&uacute tiras una aguja a la alfombrilla para el rat&oacuten","{""Q0"":4}","trial","11948","survey-likert","76","138620","0.0-5.0-0.54","1","1","2022-11-29 17:47:42","2df368f4e41f066fd1c82c297b4a1108","139.140.208.169","Mozilla/5.0 (Macintosh; Intel Mac OS X 10_15_7) AppleWebKit/605.1.15 (KHTML, like Gecko) Version/16.1 Safari/605.1.15","Macintosh","Safari","16.1","OS X","10_15_7","[0]","","42","4",""
"1264","You see how a nurse is taking a syringe <br> T&uacute ves como una enfermera est&aacute agarrando una jeringuilla","{""Q0"":4}","trial","11948","survey-likert","77","139890","0.0-5.0-0.55","1","1","2022-11-29 17:47:42","2df368f4e41f066fd1c82c297b4a1108","139.140.208.169","Mozilla/5.0 (Macintosh; Intel Mac OS X 10_15_7) AppleWebKit/605.1.15 (KHTML, like Gecko) Version/16.1 Safari/605.1.15","Macintosh","Safari","16.1","OS X","10_15_7","[0]","","48","4",""
"1467","You drop a bowling ball on a strawberry <br> T&uacute tiras una bola de boliche a una fresa","{""Q0"":4}","trial","11948","survey-likert","78","141364","0.0-5.0-0.56","1","1","2022-11-29 17:47:42","2df368f4e41f066fd1c82c297b4a1108","139.140.208.169","Mozilla/5.0 (Macintosh; Intel Mac OS X 10_15_7) AppleWebKit/605.1.15 (KHTML, like Gecko) Version/16.1 Safari/605.1.15","Macintosh","Safari","16.1","OS X","10_15_7","[0]","","20","4",""
"1316","You drop a bowling ball on a chocolate ice-cream <br> T&uacute tiras una bola de boliche a un helado de chocolate","{""Q0"":1}","trial","11948","survey-likert","79","142685","0.0-5.0-0.57","1","1","2022-11-29 17:47:42","2df368f4e41f066fd1c82c297b4a1108","139.140.208.169","Mozilla/5.0 (Macintosh; Intel Mac OS X 10_15_7) AppleWebKit/605.1.15 (KHTML, like Gecko) Version/16.1 Safari/605.1.15","Macintosh","Safari","16.1","OS X","10_15_7","[0]","","11","1",""
"2324","You drop a bowling ball on a chocolate ice-cream <br> T&uacute tiras una bola de boliche a un helado de chocolate","{""Q0"":""explanation""}","low_rate","11948","survey-text","80","145020","0.0-5.0-1.57-0.57","1","1","2022-11-29 17:47:42","2df368f4e41f066fd1c82c297b4a1108","139.140.208.169","Mozilla/5.0 (Macintosh; Intel Mac OS X 10_15_7) AppleWebKit/605.1.15 (KHTML, like Gecko) Version/16.1 Safari/605.1.15","Macintosh","Safari","16.1","OS X","10_15_7","","","11","",""
"1367","You drop a bowling ball on an egg <br> T&uacute tiras una bola de boliche a un huevo","{""Q0"":3}","trial","11948","survey-likert","81","146390","0.0-5.0-0.58","1","1","2022-11-29 17:47:42","2df368f4e41f066fd1c82c297b4a1108","139.140.208.169","Mozilla/5.0 (Macintosh; Intel Mac OS X 10_15_7) AppleWebKit/605.1.15 (KHTML, like Gecko) Version/16.1 Safari/605.1.15","Macintosh","Safari","16.1","OS X","10_15_7","[0]","","6","3",""
"1239","You drop a pencil on the shoe <br> T&uacute tiras un l&aacutepiz al zapato","{""Q0"":3}","trial","11948","survey-likert","82","147635","0.0-5.0-0.59","1","1","2022-11-29 17:47:42","2df368f4e41f066fd1c82c297b4a1108","139.140.208.169","Mozilla/5.0 (Macintosh; Intel Mac OS X 10_15_7) AppleWebKit/605.1.15 (KHTML, like Gecko) Version/16.1 Safari/605.1.15","Macintosh","Safari","16.1","OS X","10_15_7","[0]","","40","3",""
"1069","You see how a photographer is taking a photo of a lion <br> T&uacute ves como un fot&oacutegrafo est&aacute tomando una foto de un le&oacuten","{""Q0"":3}","trial","11948","survey-likert","83","148711","0.0-5.0-0.60","1","1","2022-11-29 17:47:42","2df368f4e41f066fd1c82c297b4a1108","139.140.208.169","Mozilla/5.0 (Macintosh; Intel Mac OS X 10_15_7) AppleWebKit/605.1.15 (KHTML, like Gecko) Version/16.1 Safari/605.1.15","Macintosh","Safari","16.1","OS X","10_15_7","[0]","","72","3",""
"1224","You see how an owl is sitting on the branch <br> T&uacute ves como un b&uacuteho est&aacute reposando en una rama","{""Q0"":4}","trial","11948","survey-likert","84","149942","0.0-5.0-0.61","1","1","2022-11-29 17:47:42","2df368f4e41f066fd1c82c297b4a1108","139.140.208.169","Mozilla/5.0 (Macintosh; Intel Mac OS X 10_15_7) AppleWebKit/605.1.15 (KHTML, like Gecko) Version/16.1 Safari/605.1.15","Macintosh","Safari","16.1","OS X","10_15_7","[0]","","69","4",""
"1582","You see how a hairdresser is taking scissors <br> T&uacute ves como una peluquera est&aacute agarrando las tijeras","{""Q0"":4}","trial","11948","survey-likert","85","151530","0.0-5.0-0.62","1","1","2022-11-29 17:47:42","2df368f4e41f066fd1c82c297b4a1108","139.140.208.169","Mozilla/5.0 (Macintosh; Intel Mac OS X 10_15_7) AppleWebKit/605.1.15 (KHTML, like Gecko) Version/16.1 Safari/605.1.15","Macintosh","Safari","16.1","OS X","10_15_7","[0]","","60","4",""
"1060","You see how a zebra is playing with a horse <br> T&uacute ves como una cebra est&aacute jugando con un caballo","{""Q0"":2}","trial","11948","survey-likert","86","152597","0.0-5.0-0.63","1","1","2022-11-29 17:47:42","2df368f4e41f066fd1c82c297b4a1108","139.140.208.169","Mozilla/5.0 (Macintosh; Intel Mac OS X 10_15_7) AppleWebKit/605.1.15 (KHTML, like Gecko) Version/16.1 Safari/605.1.15","Macintosh","Safari","16.1","OS X","10_15_7","[0]","","66","2",""
"1704","You drop a bowling ball on a hat <br> T&uacute tiras una bola de boliche a una gorra","{""Q0"":3}","trial","11948","survey-likert","87","154307","0.0-5.0-0.64","1","1","2022-11-29 17:47:42","2df368f4e41f066fd1c82c297b4a1108","139.140.208.169","Mozilla/5.0 (Macintosh; Intel Mac OS X 10_15_7) AppleWebKit/605.1.15 (KHTML, like Gecko) Version/16.1 Safari/605.1.15","Macintosh","Safari","16.1","OS X","10_15_7","[0]","","10","3",""
"1337","You see how a postman is driving a car <br> T&uacute ves como un cartero est&aacute conduciendo un coche","{""Q0"":1}","trial","11948","survey-likert","88","155651","0.0-5.0-0.65","1","1","2022-11-29 17:47:42","2df368f4e41f066fd1c82c297b4a1108","139.140.208.169","Mozilla/5.0 (Macintosh; Intel Mac OS X 10_15_7) AppleWebKit/605.1.15 (KHTML, like Gecko) Version/16.1 Safari/605.1.15","Macintosh","Safari","16.1","OS X","10_15_7","[0]","","32","1",""
"2048","You see how a postman is driving a car <br> T&uacute ves como un cartero est&aacute conduciendo un coche","{""Q0"":""explanation""}","low_rate","11948","survey-text","89","157709","0.0-5.0-1.65-0.65","1","1","2022-11-29 17:47:42","2df368f4e41f066fd1c82c297b4a1108","139.140.208.169","Mozilla/5.0 (Macintosh; Intel Mac OS X 10_15_7) AppleWebKit/605.1.15 (KHTML, like Gecko) Version/16.1 Safari/605.1.15","Macintosh","Safari","16.1","OS X","10_15_7","","","32","",""
"1358","You see how a thief is stealing a wallet <br> T&uacute ves como un ladr&oacuten est&aacute robando una billetera","{""Q0"":2}","trial","11948","survey-likert","90","159071","0.0-5.0-0.66","1","1","2022-11-29 17:47:42","2df368f4e41f066fd1c82c297b4a1108","139.140.208.169","Mozilla/5.0 (Macintosh; Intel Mac OS X 10_15_7) AppleWebKit/605.1.15 (KHTML, like Gecko) Version/16.1 Safari/605.1.15","Macintosh","Safari","16.1","OS X","10_15_7","[0]","","68","2",""
"1183","You see how a cook is taking a knife <br> T&uacute ves como un cocinero est&aacute agarrando un cuchillo","{""Q0"":3}","trial","11948","survey-likert","91","160261","0.0-5.0-0.67","1","1","2022-11-29 17:47:42","2df368f4e41f066fd1c82c297b4a1108","139.140.208.169","Mozilla/5.0 (Macintosh; Intel Mac OS X 10_15_7) AppleWebKit/605.1.15 (KHTML, like Gecko) Version/16.1 Safari/605.1.15","Macintosh","Safari","16.1","OS X","10_15_7","[0]","","71","3",""
"2038","You drop a ring on the newspaper <br> T&uacute tiras un anillo al peri&oacutedico","{""Q0"":2}","trial","11948","survey-likert","92","162305","0.0-5.0-0.68","1","1","2022-11-29 17:47:42","2df368f4e41f066fd1c82c297b4a1108","139.140.208.169","Mozilla/5.0 (Macintosh; Intel Mac OS X 10_15_7) AppleWebKit/605.1.15 (KHTML, like Gecko) Version/16.1 Safari/605.1.15","Macintosh","Safari","16.1","OS X","10_15_7","[0]","","41","2",""
"1093","You see how a man is playing with a cat <br> T&uacute ves como un hombre est&aacute jugando con un gato","{""Q0"":3}","trial","11948","survey-likert","93","163411","0.0-5.0-0.69","1","1","2022-11-29 17:47:42","2df368f4e41f066fd1c82c297b4a1108","139.140.208.169","Mozilla/5.0 (Macintosh; Intel Mac OS X 10_15_7) AppleWebKit/605.1.15 (KHTML, like Gecko) Version/16.1 Safari/605.1.15","Macintosh","Safari","16.1","OS X","10_15_7","[0]","","67","3",""
"1447","You see how a student is writing on a board <br> T&uacute ves como un estudiante est&aacute escribiendo en la pizarra","{""Q0"":4}","trial","11948","survey-likert","94","164864","0.0-5.0-0.70","1","1","2022-11-29 17:47:42","2df368f4e41f066fd1c82c297b4a1108","139.140.208.169","Mozilla/5.0 (Macintosh; Intel Mac OS X 10_15_7) AppleWebKit/605.1.15 (KHTML, like Gecko) Version/16.1 Safari/605.1.15","Macintosh","Safari","16.1","OS X","10_15_7","[0]","","50","4",""
"1574","You see how a horse is chewing hay <br> T&uacute ves como un caballo est&aacute masticando el heno","{""Q0"":4}","trial","11948","survey-likert","95","166444","0.0-5.0-0.71","1","1","2022-11-29 17:47:42","2df368f4e41f066fd1c82c297b4a1108","139.140.208.169","Mozilla/5.0 (Macintosh; Intel Mac OS X 10_15_7) AppleWebKit/605.1.15 (KHTML, like Gecko) Version/16.1 Safari/605.1.15","Macintosh","Safari","16.1","OS X","10_15_7","[0]","","55","4",""
"1498","
    <p style=""font-size:20px;""> You have completed the experiment portion! </p>
    <p style=""font-size:20px;""> Before you are done, we would like you to answer some basic demographic questions. </p>
    <p style=""font-size:20px;""> Note that your answers to these questions will not affect your compensation/credit. </p>
    <p style=""font-size:20px;""> Click the button below to continue.</p>
    ","0","demo","11948","html-button-response","96","167948","0.0-6.0","1","1","2022-11-29 17:47:42","2df368f4e41f066fd1c82c297b4a1108","139.140.208.169","Mozilla/5.0 (Macintosh; Intel Mac OS X 10_15_7) AppleWebKit/605.1.15 (KHTML, like Gecko) Version/16.1 Safari/605.1.15","Macintosh","Safari","16.1","OS X","10_15_7","","","","",""
"5768","","{""Age"":""22"",""Gender"":""female"",""Education"":""15""}","demo","11948","survey-text","97","173730","0.0-7.0-0.0","1","1","2022-11-29 17:47:42","2df368f4e41f066fd1c82c297b4a1108","139.140.208.169","Mozilla/5.0 (Macintosh; Intel Mac OS X 10_15_7) AppleWebKit/605.1.15 (KHTML, like Gecko) Version/16.1 Safari/605.1.15","Macintosh","Safari","16.1","OS X","10_15_7","","","","",""
"2768","","{""Race"":[""Asian"",""White/Caucasian""]}","demo","11948","survey-multi-select","98","176504","0.0-7.0-1.0","1","1","2022-11-29 17:47:42","2df368f4e41f066fd1c82c297b4a1108","139.140.208.169","Mozilla/5.0 (Macintosh; Intel Mac OS X 10_15_7) AppleWebKit/605.1.15 (KHTML, like Gecko) Version/16.1 Safari/605.1.15","Macintosh","Safari","16.1","OS X","10_15_7","[0]","","","",""
"2975","","{""Latino"":""No"",""Alert"":""Evening""}","demo","11948","survey-multi-choice","99","179484","0.0-7.0-2.0","1","1","2022-11-29 17:47:42","2df368f4e41f066fd1c82c297b4a1108","139.140.208.169","Mozilla/5.0 (Macintosh; Intel Mac OS X 10_15_7) AppleWebKit/605.1.15 (KHTML, like Gecko) Version/16.1 Safari/605.1.15","Macintosh","Safari","16.1","OS X","10_15_7","[0,1]","","","",""
"2405","","{""Q0"":""no""}","demo","11948","survey-text","100","181900","0.0-7.0-3.0","1","1","2022-11-29 17:47:42","2df368f4e41f066fd1c82c297b4a1108","139.140.208.169","Mozilla/5.0 (Macintosh; Intel Mac OS X 10_15_7) AppleWebKit/605.1.15 (KHTML, like Gecko) Version/16.1 Safari/605.1.15","Macintosh","Safari","16.1","OS X","10_15_7","","","","",""
"974","<p>Thank you for participating! </p><strong>Your completion code is: CXEJB7NH. Please copy-paste this code and submit it on Prolific.</strong><p>Click <a href=""https://drive.google.com/file/d/1c70cdHFlc0AaR6RujLWLJwWkv1RbHQJY/view?usp=sharing"" target=""_blank"" rel=""noopener noreferrer"">here</a> to access the debriefing form and know more about our research. <p> Please click the button below to finish the experiment and save your data.</p> <p> IMPORTANT: Please <strong>do not leave this page </strong> without clicking the button below.</p> <p> You may close the tab/window after you click the button below.","0","","","html-button-response","101","182878","0.0-8.0","1","1","2022-11-29 17:47:42","2df368f4e41f066fd1c82c297b4a1108","139.140.208.169","Mozilla/5.0 (Macintosh; Intel Mac OS X 10_15_7) AppleWebKit/605.1.15 (KHTML, like Gecko) Version/16.1 Safari/605.1.15","Macintosh","Safari","16.1","OS X","10_15_7","","","","",""
