"rt","stimulus","response","typeoftrial","subject","trial_type","trial_index","time_elapsed","internal_node_id","run_id","condition","recorded_at","source_code_version","ip","user_agent","device","browser","browser_version","platform","platform_version","question_order","practice_rating","sentence_num","rating","Experiment"
"43832","
        <p style=""font-size:20px;""> Welcome! Thank you for your interest in our study. </p>
        <p style=""font-size:20px;""> This study is being conducted by researchers at Bowdoin College.</p>
        <p style=""font-size:20px;""> In this experiment, you will be asked to rate the accuracy of English and Spanish translations.</p>
        <p style=""font-size:20px;""> The entire experiment should not last more than 20 minutes. You will be paid $3 USD for your participation. </p>
        <p style=""font-size:20px;""> Please click <a href = ""https://drive.google.com/file/d/1L92a02eEKCpaAEipmqDcBCDR7rsarqFE/view?usp=sharing"" target = ""_blank"">here</a> to read the full consent form. </p>
        <p style=""font-size:20px;""> If you agree to participate, please click the button below to continue to experiment instructions.</p>
        ","0","consent","76751","html-button-response","0","43836","0.0-0.0","49","1","2022-11-29 21:25:13","2df368f4e41f066fd1c82c297b4a1108","189.219.221.90","Mozilla/5.0 (Windows NT 10.0; Win64; x64) AppleWebKit/537.36 (KHTML, like Gecko) Chrome/107.0.0.0 Safari/537.36","WebKit","Chrome","107.0.0.0","Windows","10.0","","","","",""
"11525","","{""ID"":""611b0f8d86ff0419ff69c838""}","ID","76751","survey-text","1","55376","0.0-1.0","49","1","2022-11-29 21:25:13","2df368f4e41f066fd1c82c297b4a1108","189.219.221.90","Mozilla/5.0 (Windows NT 10.0; Win64; x64) AppleWebKit/537.36 (KHTML, like Gecko) Chrome/107.0.0.0 Safari/537.36","WebKit","Chrome","107.0.0.0","Windows","10.0","","","","",""
"14358","
        <p style=""font-size:20px;""> You are about to begin the practice test. </p>
        <p style=""font-size:20px;""> On each trial, you will see a sentence in English and its corresponding Spanish translation. </p>
        <p style=""font-size:20px;""> You will rate the accuracy of the translation on a scale from ""Not at all accurate"" to ""Very accurate."" </p>
        <p style=""font-size:20px;""> If you rate the translation as ""Somewhat innaccurate"" or ""Not at all accurate,"" you will be asked to provide your own translation or a reason why the translation is inaccurate. </p>
        <p style=""font-size:20px;""> Click the button below to continue to the practice session.</p>","0","instructions","76751","html-button-response","2","69740","0.0-2.0","49","1","2022-11-29 21:25:13","2df368f4e41f066fd1c82c297b4a1108","189.219.221.90","Mozilla/5.0 (Windows NT 10.0; Win64; x64) AppleWebKit/537.36 (KHTML, like Gecko) Chrome/107.0.0.0 Safari/537.36","WebKit","Chrome","107.0.0.0","Windows","10.0","","","","",""
"26764","You see how an artist is running <br> T&uacute ves como un artista est&aacute corriendo","{""Q0"":3}","practice","76751","survey-likert","3","96508","0.0-3.0-0.0","49","1","2022-11-29 21:25:13","2df368f4e41f066fd1c82c297b4a1108","189.219.221.90","Mozilla/5.0 (Windows NT 10.0; Win64; x64) AppleWebKit/537.36 (KHTML, like Gecko) Chrome/107.0.0.0 Safari/537.36","WebKit","Chrome","107.0.0.0","Windows","10.0","[0]","3","","",""
"9930","You drop a rock on a phone <br> T&uacute tiras una piedra a un tel&eacutefono","{""Q0"":3}","practice","76751","survey-likert","4","106446","0.0-3.0-0.1","49","1","2022-11-29 21:25:13","2df368f4e41f066fd1c82c297b4a1108","189.219.221.90","Mozilla/5.0 (Windows NT 10.0; Win64; x64) AppleWebKit/537.36 (KHTML, like Gecko) Chrome/107.0.0.0 Safari/537.36","WebKit","Chrome","107.0.0.0","Windows","10.0","[0]","3","","",""
"7048","You see how a duck is playing with a pumpkin <br> T&uacute ves como un pato est&aacute jugando con una calabaza","{""Q0"":4}","practice","76751","survey-likert","5","113507","0.0-3.0-0.2","49","1","2022-11-29 21:25:13","2df368f4e41f066fd1c82c297b4a1108","189.219.221.90","Mozilla/5.0 (Windows NT 10.0; Win64; x64) AppleWebKit/537.36 (KHTML, like Gecko) Chrome/107.0.0.0 Safari/537.36","WebKit","Chrome","107.0.0.0","Windows","10.0","[0]","4","","",""
"10437","You drop a bowling ball on a mircrowave <br> T&uacute tiras una bola de boliche a un horno","{""Q0"":3}","practice","76751","survey-likert","6","123953","0.0-3.0-0.3","49","1","2022-11-29 21:25:13","2df368f4e41f066fd1c82c297b4a1108","189.219.221.90","Mozilla/5.0 (Windows NT 10.0; Win64; x64) AppleWebKit/537.36 (KHTML, like Gecko) Chrome/107.0.0.0 Safari/537.36","WebKit","Chrome","107.0.0.0","Windows","10.0","[0]","3","","",""
"12565","You see how a tiger is playing with a goose <br> T&uacute ves como un le&oacuten come una pizza","{""Q0"":0}","practice","76751","survey-likert","7","136527","0.0-3.0-0.4","49","1","2022-11-29 21:25:13","2df368f4e41f066fd1c82c297b4a1108","189.219.221.90","Mozilla/5.0 (Windows NT 10.0; Win64; x64) AppleWebKit/537.36 (KHTML, like Gecko) Chrome/107.0.0.0 Safari/537.36","WebKit","Chrome","107.0.0.0","Windows","10.0","[0]","0","","",""
"38483","You see how a tiger is playing with a goose <br> T&uacute ves como un le&oacuten come una pizza","{""Q0"":""El leòn juega con un ganso""}","practice_low_rate","76751","survey-text","8","175023","0.0-3.0-1.4-0.4","49","1","2022-11-29 21:25:13","2df368f4e41f066fd1c82c297b4a1108","189.219.221.90","Mozilla/5.0 (Windows NT 10.0; Win64; x64) AppleWebKit/537.36 (KHTML, like Gecko) Chrome/107.0.0.0 Safari/537.36","WebKit","Chrome","107.0.0.0","Windows","10.0","","","5","",""
"16013","You see how a teacher is drawing a picture <br> T&uacute ves como un maestro pinta una foto","{""Q0"":4}","practice","76751","survey-likert","9","191038","0.0-3.0-0.5","49","1","2022-11-29 21:25:13","2df368f4e41f066fd1c82c297b4a1108","189.219.221.90","Mozilla/5.0 (Windows NT 10.0; Win64; x64) AppleWebKit/537.36 (KHTML, like Gecko) Chrome/107.0.0.0 Safari/537.36","WebKit","Chrome","107.0.0.0","Windows","10.0","[0]","4","","",""
"4151","<p style=""font-size:20px;"">You have now completed the practice session! </p>
        <p style=""font-size:20px;"">You will now move on to the main experiment. </p>
        <p style=""font-size:20px;"">Please click the button below to continue. </p>","0","movetoexp","76751","html-button-response","10","195197","0.0-4.0","49","1","2022-11-29 21:25:13","2df368f4e41f066fd1c82c297b4a1108","189.219.221.90","Mozilla/5.0 (Windows NT 10.0; Win64; x64) AppleWebKit/537.36 (KHTML, like Gecko) Chrome/107.0.0.0 Safari/537.36","WebKit","Chrome","107.0.0.0","Windows","10.0","","","","",""
"10444","You drop a bowling ball on an iPAD <br> T&uacute tiras una bola de boliche a un iPad","{""Q0"":3}","trial","76751","survey-likert","11","205644","0.0-5.0-0.0","49","1","2022-11-29 21:25:13","2df368f4e41f066fd1c82c297b4a1108","189.219.221.90","Mozilla/5.0 (Windows NT 10.0; Win64; x64) AppleWebKit/537.36 (KHTML, like Gecko) Chrome/107.0.0.0 Safari/537.36","WebKit","Chrome","107.0.0.0","Windows","10.0","[0]","","12","3",""
"5914","You drop a bowling ball on a tomato <br> T&uacute tiras una bola de boliche a un tomate","{""Q0"":3}","trial","76751","survey-likert","12","211565","0.0-5.0-0.1","49","1","2022-11-29 21:25:13","2df368f4e41f066fd1c82c297b4a1108","189.219.221.90","Mozilla/5.0 (Windows NT 10.0; Win64; x64) AppleWebKit/537.36 (KHTML, like Gecko) Chrome/107.0.0.0 Safari/537.36","WebKit","Chrome","107.0.0.0","Windows","10.0","[0]","","23","3",""
"9744","You drop a bowling ball on glasses <br> T&uacute tiras una bola de boliche a unas gafas","{""Q0"":3}","trial","76751","survey-likert","13","221318","0.0-5.0-0.2","49","1","2022-11-29 21:25:13","2df368f4e41f066fd1c82c297b4a1108","189.219.221.90","Mozilla/5.0 (Windows NT 10.0; Win64; x64) AppleWebKit/537.36 (KHTML, like Gecko) Chrome/107.0.0.0 Safari/537.36","WebKit","Chrome","107.0.0.0","Windows","10.0","[0]","","9","3",""
"7522","You drop a bowling ball on a blackberry <br> T&uacute tiras una bola de boliche a una mora","{""Q0"":2}","trial","76751","survey-likert","14","228849","0.0-5.0-0.3","49","1","2022-11-29 21:25:13","2df368f4e41f066fd1c82c297b4a1108","189.219.221.90","Mozilla/5.0 (Windows NT 10.0; Win64; x64) AppleWebKit/537.36 (KHTML, like Gecko) Chrome/107.0.0.0 Safari/537.36","WebKit","Chrome","107.0.0.0","Windows","10.0","[0]","","8","2",""
"7294","You drop a bowling ball on a piece of sushi <br> T&uacute tiras una bola de boliche a un pedazo de sushi","{""Q0"":3}","trial","76751","survey-likert","15","236151","0.0-5.0-0.4","49","1","2022-11-29 21:25:13","2df368f4e41f066fd1c82c297b4a1108","189.219.221.90","Mozilla/5.0 (Windows NT 10.0; Win64; x64) AppleWebKit/537.36 (KHTML, like Gecko) Chrome/107.0.0.0 Safari/537.36","WebKit","Chrome","107.0.0.0","Windows","10.0","[0]","","21","3",""
"4990","You see how a man is shaving his beard <br> T&uacute ves como un hombre se est&aacute afeitando la barba","{""Q0"":4}","trial","76751","survey-likert","16","241149","0.0-5.0-0.5","49","1","2022-11-29 21:25:13","2df368f4e41f066fd1c82c297b4a1108","189.219.221.90","Mozilla/5.0 (Windows NT 10.0; Win64; x64) AppleWebKit/537.36 (KHTML, like Gecko) Chrome/107.0.0.0 Safari/537.36","WebKit","Chrome","107.0.0.0","Windows","10.0","[0]","","43","4",""
"4808","You see how a kitten is playing in the sandbox <br> T&uacute ves como un gatito est&aacute jugando en la caja de arena","{""Q0"":4}","trial","76751","survey-likert","17","245965","0.0-5.0-0.6","49","1","2022-11-29 21:25:13","2df368f4e41f066fd1c82c297b4a1108","189.219.221.90","Mozilla/5.0 (Windows NT 10.0; Win64; x64) AppleWebKit/537.36 (KHTML, like Gecko) Chrome/107.0.0.0 Safari/537.36","WebKit","Chrome","107.0.0.0","Windows","10.0","[0]","","52","4",""
"5277","You see how a panda is resting on a tree <br> T&uacute ves como un panda est&aacute descansando en un &aacuterbol","{""Q0"":4}","trial","76751","survey-likert","18","251250","0.0-5.0-0.7","49","1","2022-11-29 21:25:13","2df368f4e41f066fd1c82c297b4a1108","189.219.221.90","Mozilla/5.0 (Windows NT 10.0; Win64; x64) AppleWebKit/537.36 (KHTML, like Gecko) Chrome/107.0.0.0 Safari/537.36","WebKit","Chrome","107.0.0.0","Windows","10.0","[0]","","57","4",""
"6433","You drop a bowling ball on an empty can of beer <br> T&uacute tiras una bola de boliche a una lata de cerveza vac&iacutea","{""Q0"":3}","trial","76751","survey-likert","19","257690","0.0-5.0-0.8","49","1","2022-11-29 21:25:13","2df368f4e41f066fd1c82c297b4a1108","189.219.221.90","Mozilla/5.0 (Windows NT 10.0; Win64; x64) AppleWebKit/537.36 (KHTML, like Gecko) Chrome/107.0.0.0 Safari/537.36","WebKit","Chrome","107.0.0.0","Windows","10.0","[0]","","3","3",""
"7994","You drop a watch on the laptop <br> T&uacute tiras un reloj al port&aacutetil","{""Q0"":4}","trial","76751","survey-likert","20","265692","0.0-5.0-0.9","49","1","2022-11-29 21:25:13","2df368f4e41f066fd1c82c297b4a1108","189.219.221.90","Mozilla/5.0 (Windows NT 10.0; Win64; x64) AppleWebKit/537.36 (KHTML, like Gecko) Chrome/107.0.0.0 Safari/537.36","WebKit","Chrome","107.0.0.0","Windows","10.0","[0]","","37","4",""
"3888","You drop a thermometer on the box <br> T&uacute tiras un term&oacutemetro a la caja","{""Q0"":4}","trial","76751","survey-likert","21","269588","0.0-5.0-0.10","49","1","2022-11-29 21:25:13","2df368f4e41f066fd1c82c297b4a1108","189.219.221.90","Mozilla/5.0 (Windows NT 10.0; Win64; x64) AppleWebKit/537.36 (KHTML, like Gecko) Chrome/107.0.0.0 Safari/537.36","WebKit","Chrome","107.0.0.0","Windows","10.0","[0]","","70","4",""
"7166","You see how an astronaut is putting on a space suit <br> T&uacute ves como un astronauta se est&aacute poniendo su traje espacial","{""Q0"":4}","trial","76751","survey-likert","22","276764","0.0-5.0-0.11","49","1","2022-11-29 21:25:13","2df368f4e41f066fd1c82c297b4a1108","189.219.221.90","Mozilla/5.0 (Windows NT 10.0; Win64; x64) AppleWebKit/537.36 (KHTML, like Gecko) Chrome/107.0.0.0 Safari/537.36","WebKit","Chrome","107.0.0.0","Windows","10.0","[0]","","33","4",""
"7037","You see how a woman is paying with a debit card <br> T&uacute ves como una mujer est&aacute pagando con una tarjeta de d&eacutebito","{""Q0"":4}","trial","76751","survey-likert","23","283810","0.0-5.0-0.12","49","1","2022-11-29 21:25:13","2df368f4e41f066fd1c82c297b4a1108","189.219.221.90","Mozilla/5.0 (Windows NT 10.0; Win64; x64) AppleWebKit/537.36 (KHTML, like Gecko) Chrome/107.0.0.0 Safari/537.36","WebKit","Chrome","107.0.0.0","Windows","10.0","[0]","","64","4",""
"6875","You see how a nurse is taking a syringe <br> T&uacute ves como una enfermera est&aacute agarrando una jeringuilla","{""Q0"":3}","trial","76751","survey-likert","24","290693","0.0-5.0-0.13","49","1","2022-11-29 21:25:13","2df368f4e41f066fd1c82c297b4a1108","189.219.221.90","Mozilla/5.0 (Windows NT 10.0; Win64; x64) AppleWebKit/537.36 (KHTML, like Gecko) Chrome/107.0.0.0 Safari/537.36","WebKit","Chrome","107.0.0.0","Windows","10.0","[0]","","48","3",""
"12335","You drop a bowling ball on a paper cup <br> T&uacute tiras una bola de boliche a un vaso de papel","{""Q0"":4}","trial","76751","survey-likert","25","303038","0.0-5.0-0.14","49","1","2022-11-29 21:25:13","2df368f4e41f066fd1c82c297b4a1108","189.219.221.90","Mozilla/5.0 (Windows NT 10.0; Win64; x64) AppleWebKit/537.36 (KHTML, like Gecko) Chrome/107.0.0.0 Safari/537.36","WebKit","Chrome","107.0.0.0","Windows","10.0","[0]","","24","4",""
"4700","You drop a toothbrush on the sponge <br> T&uacute tiras un cepillo de dientes en la esponja","{""Q0"":4}","trial","76751","survey-likert","26","307749","0.0-5.0-0.15","49","1","2022-11-29 21:25:13","2df368f4e41f066fd1c82c297b4a1108","189.219.221.90","Mozilla/5.0 (Windows NT 10.0; Win64; x64) AppleWebKit/537.36 (KHTML, like Gecko) Chrome/107.0.0.0 Safari/537.36","WebKit","Chrome","107.0.0.0","Windows","10.0","[0]","","25","4",""
"7438","You see how a pilot is reading a book <br> T&uacute ves como un piloto est&aacute leyendo un libro","{""Q0"":4}","trial","76751","survey-likert","27","315197","0.0-5.0-0.16","49","1","2022-11-29 21:25:13","2df368f4e41f066fd1c82c297b4a1108","189.219.221.90","Mozilla/5.0 (Windows NT 10.0; Win64; x64) AppleWebKit/537.36 (KHTML, like Gecko) Chrome/107.0.0.0 Safari/537.36","WebKit","Chrome","107.0.0.0","Windows","10.0","[0]","","61","4",""
"4366","You drop a bowling ball on a ceramic plate <br> T&uacute tiras una bola de boliche a un plato de cer&aacutemica","{""Q0"":4}","trial","76751","survey-likert","28","319572","0.0-5.0-0.17","49","1","2022-11-29 21:25:13","2df368f4e41f066fd1c82c297b4a1108","189.219.221.90","Mozilla/5.0 (Windows NT 10.0; Win64; x64) AppleWebKit/537.36 (KHTML, like Gecko) Chrome/107.0.0.0 Safari/537.36","WebKit","Chrome","107.0.0.0","Windows","10.0","[0]","","19","4",""
"4552","You see how a cat is drinking water from a bowl <br> T&uacute ves como un gato est&aacute bebiendo agua de un cuenco","{""Q0"":4}","trial","76751","survey-likert","29","324134","0.0-5.0-0.18","49","1","2022-11-29 21:25:13","2df368f4e41f066fd1c82c297b4a1108","189.219.221.90","Mozilla/5.0 (Windows NT 10.0; Win64; x64) AppleWebKit/537.36 (KHTML, like Gecko) Chrome/107.0.0.0 Safari/537.36","WebKit","Chrome","107.0.0.0","Windows","10.0","[0]","","28","4",""
"4606","You see how a dentist is drinking a can of cola <br> T&uacute ves como un dentista est&aacute bebiendo una lata de cola","{""Q0"":4}","trial","76751","survey-likert","30","328749","0.0-5.0-0.19","49","1","2022-11-29 21:25:13","2df368f4e41f066fd1c82c297b4a1108","189.219.221.90","Mozilla/5.0 (Windows NT 10.0; Win64; x64) AppleWebKit/537.36 (KHTML, like Gecko) Chrome/107.0.0.0 Safari/537.36","WebKit","Chrome","107.0.0.0","Windows","10.0","[0]","","47","4",""
"4330","You drop a remote on the rug <br> T&uacute tiras un control remoto a la alfombra","{""Q0"":4}","trial","76751","survey-likert","31","333092","0.0-5.0-0.20","49","1","2022-11-29 21:25:13","2df368f4e41f066fd1c82c297b4a1108","189.219.221.90","Mozilla/5.0 (Windows NT 10.0; Win64; x64) AppleWebKit/537.36 (KHTML, like Gecko) Chrome/107.0.0.0 Safari/537.36","WebKit","Chrome","107.0.0.0","Windows","10.0","[0]","","39","4",""
"4609","You see how a cook is taking a knife <br> T&uacute ves como un cocinero est&aacute agarrando un cuchillo","{""Q0"":4}","trial","76751","survey-likert","32","337710","0.0-5.0-0.21","49","1","2022-11-29 21:25:13","2df368f4e41f066fd1c82c297b4a1108","189.219.221.90","Mozilla/5.0 (Windows NT 10.0; Win64; x64) AppleWebKit/537.36 (KHTML, like Gecko) Chrome/107.0.0.0 Safari/537.36","WebKit","Chrome","107.0.0.0","Windows","10.0","[0]","","71","4",""
"7335","You see how an actress is taking a microphone <br> T&uacute ves como una actriz est&aacute agarrando el micr&oacutefono","{""Q0"":4}","trial","76751","survey-likert","33","345054","0.0-5.0-0.22","49","1","2022-11-29 21:25:13","2df368f4e41f066fd1c82c297b4a1108","189.219.221.90","Mozilla/5.0 (Windows NT 10.0; Win64; x64) AppleWebKit/537.36 (KHTML, like Gecko) Chrome/107.0.0.0 Safari/537.36","WebKit","Chrome","107.0.0.0","Windows","10.0","[0]","","51","4",""
"6405","You drop a bowling ball on an egg <br> T&uacute tiras una bola de boliche a un huevo","{""Q0"":4}","trial","76751","survey-likert","34","351468","0.0-5.0-0.23","49","1","2022-11-29 21:25:13","2df368f4e41f066fd1c82c297b4a1108","189.219.221.90","Mozilla/5.0 (Windows NT 10.0; Win64; x64) AppleWebKit/537.36 (KHTML, like Gecko) Chrome/107.0.0.0 Safari/537.36","WebKit","Chrome","107.0.0.0","Windows","10.0","[0]","","6","4",""
"6058","You drop a bowling ball on an egg flan <br> T&uacute tiras una bola de boliche a un flan","{""Q0"":3}","trial","76751","survey-likert","35","357539","0.0-5.0-0.24","49","1","2022-11-29 21:25:13","2df368f4e41f066fd1c82c297b4a1108","189.219.221.90","Mozilla/5.0 (Windows NT 10.0; Win64; x64) AppleWebKit/537.36 (KHTML, like Gecko) Chrome/107.0.0.0 Safari/537.36","WebKit","Chrome","107.0.0.0","Windows","10.0","[0]","","7","3",""
"4593","You see how a giraffe is playing with a zebra <br> T&uacute ves como una jirafa est&aacute jugando con una cebra","{""Q0"":4}","trial","76751","survey-likert","36","362140","0.0-5.0-0.25","49","1","2022-11-29 21:25:13","2df368f4e41f066fd1c82c297b4a1108","189.219.221.90","Mozilla/5.0 (Windows NT 10.0; Win64; x64) AppleWebKit/537.36 (KHTML, like Gecko) Chrome/107.0.0.0 Safari/537.36","WebKit","Chrome","107.0.0.0","Windows","10.0","[0]","","65","4",""
"5409","You drop a bowling ball on an iPhone <br> T&uacute tiras una bola de boliche a un iPhone","{""Q0"":4}","trial","76751","survey-likert","37","367558","0.0-5.0-0.26","49","1","2022-11-29 21:25:13","2df368f4e41f066fd1c82c297b4a1108","189.219.221.90","Mozilla/5.0 (Windows NT 10.0; Win64; x64) AppleWebKit/537.36 (KHTML, like Gecko) Chrome/107.0.0.0 Safari/537.36","WebKit","Chrome","107.0.0.0","Windows","10.0","[0]","","13","4",""
"4866","You see how a postman is driving a car <br> T&uacute ves como un cartero est&aacute conduciendo un coche","{""Q0"":4}","trial","76751","survey-likert","38","372432","0.0-5.0-0.27","49","1","2022-11-29 21:25:13","2df368f4e41f066fd1c82c297b4a1108","189.219.221.90","Mozilla/5.0 (Windows NT 10.0; Win64; x64) AppleWebKit/537.36 (KHTML, like Gecko) Chrome/107.0.0.0 Safari/537.36","WebKit","Chrome","107.0.0.0","Windows","10.0","[0]","","32","4",""
"3909","You drop a bowling ball on a hat <br> T&uacute tiras una bola de boliche a una gorra","{""Q0"":4}","trial","76751","survey-likert","39","376355","0.0-5.0-0.28","49","1","2022-11-29 21:25:13","2df368f4e41f066fd1c82c297b4a1108","189.219.221.90","Mozilla/5.0 (Windows NT 10.0; Win64; x64) AppleWebKit/537.36 (KHTML, like Gecko) Chrome/107.0.0.0 Safari/537.36","WebKit","Chrome","107.0.0.0","Windows","10.0","[0]","","10","4",""
"5294","You see how a hairdresser is taking scissors <br> T&uacute ves como una peluquera est&aacute agarrando las tijeras","{""Q0"":4}","trial","76751","survey-likert","40","381657","0.0-5.0-0.29","49","1","2022-11-29 21:25:13","2df368f4e41f066fd1c82c297b4a1108","189.219.221.90","Mozilla/5.0 (Windows NT 10.0; Win64; x64) AppleWebKit/537.36 (KHTML, like Gecko) Chrome/107.0.0.0 Safari/537.36","WebKit","Chrome","107.0.0.0","Windows","10.0","[0]","","60","4",""
"3891","You drop a bowling ball on a strawberry <br> T&uacute tiras una bola de boliche a una fresa","{""Q0"":4}","trial","76751","survey-likert","41","385557","0.0-5.0-0.30","49","1","2022-11-29 21:25:13","2df368f4e41f066fd1c82c297b4a1108","189.219.221.90","Mozilla/5.0 (Windows NT 10.0; Win64; x64) AppleWebKit/537.36 (KHTML, like Gecko) Chrome/107.0.0.0 Safari/537.36","WebKit","Chrome","107.0.0.0","Windows","10.0","[0]","","20","4",""
"3956","You see how a musician is playing a guitar <br> T&uacute ves como un m&uacutesico est&aacute tocando la guitarra","{""Q0"":4}","trial","76751","survey-likert","42","389522","0.0-5.0-0.31","49","1","2022-11-29 21:25:13","2df368f4e41f066fd1c82c297b4a1108","189.219.221.90","Mozilla/5.0 (Windows NT 10.0; Win64; x64) AppleWebKit/537.36 (KHTML, like Gecko) Chrome/107.0.0.0 Safari/537.36","WebKit","Chrome","107.0.0.0","Windows","10.0","[0]","","27","4",""
"4226","You see how a student is writing on a board <br> T&uacute ves como un estudiante est&aacute escribiendo en la pizarra","{""Q0"":4}","trial","76751","survey-likert","43","393758","0.0-5.0-0.32","49","1","2022-11-29 21:25:13","2df368f4e41f066fd1c82c297b4a1108","189.219.221.90","Mozilla/5.0 (Windows NT 10.0; Win64; x64) AppleWebKit/537.36 (KHTML, like Gecko) Chrome/107.0.0.0 Safari/537.36","WebKit","Chrome","107.0.0.0","Windows","10.0","[0]","","50","4",""
"4313","You see how a horse is chewing hay <br> T&uacute ves como un caballo est&aacute masticando el heno","{""Q0"":4}","trial","76751","survey-likert","44","398080","0.0-5.0-0.33","49","1","2022-11-29 21:25:13","2df368f4e41f066fd1c82c297b4a1108","189.219.221.90","Mozilla/5.0 (Windows NT 10.0; Win64; x64) AppleWebKit/537.36 (KHTML, like Gecko) Chrome/107.0.0.0 Safari/537.36","WebKit","Chrome","107.0.0.0","Windows","10.0","[0]","","55","4",""
"3982","You see how a butterfly is sitting on a flower <br> T&uacute ves como una mariposa est&aacute reposando en una flor","{""Q0"":4}","trial","76751","survey-likert","45","402072","0.0-5.0-0.34","49","1","2022-11-29 21:25:13","2df368f4e41f066fd1c82c297b4a1108","189.219.221.90","Mozilla/5.0 (Windows NT 10.0; Win64; x64) AppleWebKit/537.36 (KHTML, like Gecko) Chrome/107.0.0.0 Safari/537.36","WebKit","Chrome","107.0.0.0","Windows","10.0","[0]","","59","4",""
"3029","You see how a man is boiling potatoes <br> T&uacute ves a un hombre est&aacute hirviendo papas","{""Q0"":4}","trial","76751","survey-likert","46","405111","0.0-5.0-0.35","49","1","2022-11-29 21:25:13","2df368f4e41f066fd1c82c297b4a1108","189.219.221.90","Mozilla/5.0 (Windows NT 10.0; Win64; x64) AppleWebKit/537.36 (KHTML, like Gecko) Chrome/107.0.0.0 Safari/537.36","WebKit","Chrome","107.0.0.0","Windows","10.0","[0]","","46","4",""
"6109","You see how an owl is sitting on the branch <br> T&uacute ves como un b&uacuteho est&aacute reposando en una rama","{""Q0"":4}","trial","76751","survey-likert","47","411228","0.0-5.0-0.36","49","1","2022-11-29 21:25:13","2df368f4e41f066fd1c82c297b4a1108","189.219.221.90","Mozilla/5.0 (Windows NT 10.0; Win64; x64) AppleWebKit/537.36 (KHTML, like Gecko) Chrome/107.0.0.0 Safari/537.36","WebKit","Chrome","107.0.0.0","Windows","10.0","[0]","","69","4",""
"19638","You drop a cushion on the magazine <br> T&uacute tiras un coj&iacuten a la revista","{""Q0"":4}","trial","76751","survey-likert","48","430875","0.0-5.0-0.37","49","1","2022-11-29 21:25:13","2df368f4e41f066fd1c82c297b4a1108","189.219.221.90","Mozilla/5.0 (Windows NT 10.0; Win64; x64) AppleWebKit/537.36 (KHTML, like Gecko) Chrome/107.0.0.0 Safari/537.36","WebKit","Chrome","107.0.0.0","Windows","10.0","[0]","","38","4",""
"3608","You see how a mouse is eating cheese <br> T&uacute ves como el rat&oacuten est&aacute comiendo queso","{""Q0"":4}","trial","76751","survey-likert","49","434497","0.0-5.0-0.38","49","1","2022-11-29 21:25:13","2df368f4e41f066fd1c82c297b4a1108","189.219.221.90","Mozilla/5.0 (Windows NT 10.0; Win64; x64) AppleWebKit/537.36 (KHTML, like Gecko) Chrome/107.0.0.0 Safari/537.36","WebKit","Chrome","107.0.0.0","Windows","10.0","[0]","","56","4",""
"4118","You see how a parrot is eating an apple <br> T&uacute ves como un loro est&aacute comiendo una manzana","{""Q0"":4}","trial","76751","survey-likert","50","438627","0.0-5.0-0.39","49","1","2022-11-29 21:25:13","2df368f4e41f066fd1c82c297b4a1108","189.219.221.90","Mozilla/5.0 (Windows NT 10.0; Win64; x64) AppleWebKit/537.36 (KHTML, like Gecko) Chrome/107.0.0.0 Safari/537.36","WebKit","Chrome","107.0.0.0","Windows","10.0","[0]","","58","4",""
"3131","You see how a donkey is drinking water <br> T&uacute ves como un burro est&aacute bebiendo agua","{""Q0"":4}","trial","76751","survey-likert","51","441770","0.0-5.0-0.40","49","1","2022-11-29 21:25:13","2df368f4e41f066fd1c82c297b4a1108","189.219.221.90","Mozilla/5.0 (Windows NT 10.0; Win64; x64) AppleWebKit/537.36 (KHTML, like Gecko) Chrome/107.0.0.0 Safari/537.36","WebKit","Chrome","107.0.0.0","Windows","10.0","[0]","","45","4",""
"3777","You drop a bowling ball on a cracker <br> T&uacute tiras una bola de boliche a una galleta","{""Q0"":4}","trial","76751","survey-likert","52","445554","0.0-5.0-0.41","49","1","2022-11-29 21:25:13","2df368f4e41f066fd1c82c297b4a1108","189.219.221.90","Mozilla/5.0 (Windows NT 10.0; Win64; x64) AppleWebKit/537.36 (KHTML, like Gecko) Chrome/107.0.0.0 Safari/537.36","WebKit","Chrome","107.0.0.0","Windows","10.0","[0]","","4","4",""
"4135","You drop a bowling ball on a porcelain figure <br> T&uacute tiras una bola de boliche a una figura de porcelana","{""Q0"":4}","trial","76751","survey-likert","53","449700","0.0-5.0-0.42","49","1","2022-11-29 21:25:13","2df368f4e41f066fd1c82c297b4a1108","189.219.221.90","Mozilla/5.0 (Windows NT 10.0; Win64; x64) AppleWebKit/537.36 (KHTML, like Gecko) Chrome/107.0.0.0 Safari/537.36","WebKit","Chrome","107.0.0.0","Windows","10.0","[0]","","1","4",""
"4872","You drop a cabbage on the table <br> T&uacute tiras una col a la mesa","{""Q0"":4}","trial","76751","survey-likert","54","454583","0.0-5.0-0.43","49","1","2022-11-29 21:25:13","2df368f4e41f066fd1c82c297b4a1108","189.219.221.90","Mozilla/5.0 (Windows NT 10.0; Win64; x64) AppleWebKit/537.36 (KHTML, like Gecko) Chrome/107.0.0.0 Safari/537.36","WebKit","Chrome","107.0.0.0","Windows","10.0","[0]","","35","4",""
"3331","You see how a zebra is playing with a horse <br> T&uacute ves como una cebra est&aacute jugando con un caballo","{""Q0"":4}","trial","76751","survey-likert","55","457924","0.0-5.0-0.44","49","1","2022-11-29 21:25:13","2df368f4e41f066fd1c82c297b4a1108","189.219.221.90","Mozilla/5.0 (Windows NT 10.0; Win64; x64) AppleWebKit/537.36 (KHTML, like Gecko) Chrome/107.0.0.0 Safari/537.36","WebKit","Chrome","107.0.0.0","Windows","10.0","[0]","","66","4",""
"18421","You drop a needle on the mouse pad <br> T&uacute tiras una aguja a la alfombrilla para el rat&oacuten","{""Q0"":1}","trial","76751","survey-likert","56","476357","0.0-5.0-0.45","49","1","2022-11-29 21:25:13","2df368f4e41f066fd1c82c297b4a1108","189.219.221.90","Mozilla/5.0 (Windows NT 10.0; Win64; x64) AppleWebKit/537.36 (KHTML, like Gecko) Chrome/107.0.0.0 Safari/537.36","WebKit","Chrome","107.0.0.0","Windows","10.0","[0]","","42","1",""
"28483","You drop a needle on the mouse pad <br> T&uacute tiras una aguja a la alfombrilla para el rat&oacuten","{""Q0"":""tu tiras una aguja al colchoncillo para el mouse""}","low_rate","76751","survey-text","57","504850","0.0-5.0-1.45-0.45","49","1","2022-11-29 21:25:13","2df368f4e41f066fd1c82c297b4a1108","189.219.221.90","Mozilla/5.0 (Windows NT 10.0; Win64; x64) AppleWebKit/537.36 (KHTML, like Gecko) Chrome/107.0.0.0 Safari/537.36","WebKit","Chrome","107.0.0.0","Windows","10.0","","","42","",""
"4577","You drop a bowling ball on a chocolate ice-cream <br> T&uacute tiras una bola de boliche a un helado de chocolate","{""Q0"":4}","trial","76751","survey-likert","58","509431","0.0-5.0-0.46","49","1","2022-11-29 21:25:13","2df368f4e41f066fd1c82c297b4a1108","189.219.221.90","Mozilla/5.0 (Windows NT 10.0; Win64; x64) AppleWebKit/537.36 (KHTML, like Gecko) Chrome/107.0.0.0 Safari/537.36","WebKit","Chrome","107.0.0.0","Windows","10.0","[0]","","11","4",""
"7419","You drop a bowling ball on a rice cake <br> T&uacute tiras una bola de boliche a una tortita de arroz","{""Q0"":4}","trial","76751","survey-likert","59","516858","0.0-5.0-0.47","49","1","2022-11-29 21:25:13","2df368f4e41f066fd1c82c297b4a1108","189.219.221.90","Mozilla/5.0 (Windows NT 10.0; Win64; x64) AppleWebKit/537.36 (KHTML, like Gecko) Chrome/107.0.0.0 Safari/537.36","WebKit","Chrome","107.0.0.0","Windows","10.0","[0]","","18","4",""
"4445","You drop a bowling ball on a chocolate muffin <br> T&uacute tiras una bola de boliche a una magdalena de chocolate","{""Q0"":4}","trial","76751","survey-likert","60","521313","0.0-5.0-0.48","49","1","2022-11-29 21:25:13","2df368f4e41f066fd1c82c297b4a1108","189.219.221.90","Mozilla/5.0 (Windows NT 10.0; Win64; x64) AppleWebKit/537.36 (KHTML, like Gecko) Chrome/107.0.0.0 Safari/537.36","WebKit","Chrome","107.0.0.0","Windows","10.0","[0]","","16","4",""
"6078","You see how a president is writing in the notebook <br> T&uacute ves como un presidente est&aacute escribiendo en la libreta","{""Q0"":4}","trial","76751","survey-likert","61","527401","0.0-5.0-0.49","49","1","2022-11-29 21:25:13","2df368f4e41f066fd1c82c297b4a1108","189.219.221.90","Mozilla/5.0 (Windows NT 10.0; Win64; x64) AppleWebKit/537.36 (KHTML, like Gecko) Chrome/107.0.0.0 Safari/537.36","WebKit","Chrome","107.0.0.0","Windows","10.0","[0]","","63","4",""
"4769","You drop a bowling ball on a piece of cake <br> T&uacute tiras una bola de boliche a un trozo de pastel","{""Q0"":4}","trial","76751","survey-likert","62","532181","0.0-5.0-0.50","49","1","2022-11-29 21:25:13","2df368f4e41f066fd1c82c297b4a1108","189.219.221.90","Mozilla/5.0 (Windows NT 10.0; Win64; x64) AppleWebKit/537.36 (KHTML, like Gecko) Chrome/107.0.0.0 Safari/537.36","WebKit","Chrome","107.0.0.0","Windows","10.0","[0]","","2","4",""
"4231","You see how a police officer is talking on the phone <br> T&uacute ves como un polic&iacutea est&aacute hablando por el tel&eacutefono","{""Q0"":4}","trial","76751","survey-likert","63","536422","0.0-5.0-0.51","49","1","2022-11-29 21:25:13","2df368f4e41f066fd1c82c297b4a1108","189.219.221.90","Mozilla/5.0 (Windows NT 10.0; Win64; x64) AppleWebKit/537.36 (KHTML, like Gecko) Chrome/107.0.0.0 Safari/537.36","WebKit","Chrome","107.0.0.0","Windows","10.0","[0]","","62","4",""
"2946","You drop a fork on the plate <br> T&uacute tiras un tenedor al plato","{""Q0"":4}","trial","76751","survey-likert","64","539380","0.0-5.0-0.52","49","1","2022-11-29 21:25:13","2df368f4e41f066fd1c82c297b4a1108","189.219.221.90","Mozilla/5.0 (Windows NT 10.0; Win64; x64) AppleWebKit/537.36 (KHTML, like Gecko) Chrome/107.0.0.0 Safari/537.36","WebKit","Chrome","107.0.0.0","Windows","10.0","[0]","","26","4",""
"7035","You see how a puppy is playing with a ball <br> T&uacute ves como un cachorro est&aacute jugando con una pelota","{""Q0"":4}","trial","76751","survey-likert","65","546426","0.0-5.0-0.53","49","1","2022-11-29 21:25:13","2df368f4e41f066fd1c82c297b4a1108","189.219.221.90","Mozilla/5.0 (Windows NT 10.0; Win64; x64) AppleWebKit/537.36 (KHTML, like Gecko) Chrome/107.0.0.0 Safari/537.36","WebKit","Chrome","107.0.0.0","Windows","10.0","[0]","","34","4",""
"4726","You drop a pencil on the shoe <br> T&uacute tiras un l&aacutepiz al zapato","{""Q0"":4}","trial","76751","survey-likert","66","551161","0.0-5.0-0.54","49","1","2022-11-29 21:25:13","2df368f4e41f066fd1c82c297b4a1108","189.219.221.90","Mozilla/5.0 (Windows NT 10.0; Win64; x64) AppleWebKit/537.36 (KHTML, like Gecko) Chrome/107.0.0.0 Safari/537.36","WebKit","Chrome","107.0.0.0","Windows","10.0","[0]","","40","4",""
"4494","You see how a teenage girl is playing the piano <br> T&uacute ves como una ni&ntildea adolescente est&aacute tocando el piano","{""Q0"":4}","trial","76751","survey-likert","67","555666","0.0-5.0-0.55","49","1","2022-11-29 21:25:13","2df368f4e41f066fd1c82c297b4a1108","189.219.221.90","Mozilla/5.0 (Windows NT 10.0; Win64; x64) AppleWebKit/537.36 (KHTML, like Gecko) Chrome/107.0.0.0 Safari/537.36","WebKit","Chrome","107.0.0.0","Windows","10.0","[0]","","54","4",""
"4230","You see how a photographer is taking a photo of a lion <br> T&uacute ves como un fot&oacutegrafo est&aacute tomando una foto de un le&oacuten","{""Q0"":4}","trial","76751","survey-likert","68","559906","0.0-5.0-0.56","49","1","2022-11-29 21:25:13","2df368f4e41f066fd1c82c297b4a1108","189.219.221.90","Mozilla/5.0 (Windows NT 10.0; Win64; x64) AppleWebKit/537.36 (KHTML, like Gecko) Chrome/107.0.0.0 Safari/537.36","WebKit","Chrome","107.0.0.0","Windows","10.0","[0]","","72","4",""
"4216","You see how a boy is peeling a banana <br> T&uacute ves como un ni&ntildeo est&aacute pelando una banana","{""Q0"":4}","trial","76751","survey-likert","69","564134","0.0-5.0-0.57","49","1","2022-11-29 21:25:13","2df368f4e41f066fd1c82c297b4a1108","189.219.221.90","Mozilla/5.0 (Windows NT 10.0; Win64; x64) AppleWebKit/537.36 (KHTML, like Gecko) Chrome/107.0.0.0 Safari/537.36","WebKit","Chrome","107.0.0.0","Windows","10.0","[0]","","30","4",""
"4648","You see how a man is playing with a cat <br> T&uacute ves como un hombre est&aacute jugando con un gato","{""Q0"":4}","trial","76751","survey-likert","70","568795","0.0-5.0-0.58","49","1","2022-11-29 21:25:13","2df368f4e41f066fd1c82c297b4a1108","189.219.221.90","Mozilla/5.0 (Windows NT 10.0; Win64; x64) AppleWebKit/537.36 (KHTML, like Gecko) Chrome/107.0.0.0 Safari/537.36","WebKit","Chrome","107.0.0.0","Windows","10.0","[0]","","67","4",""
"5400","You drop a bowling ball on a mirror <br> T&uacute tiras una bola de boliche a un espejo","{""Q0"":4}","trial","76751","survey-likert","71","574206","0.0-5.0-0.59","49","1","2022-11-29 21:25:13","2df368f4e41f066fd1c82c297b4a1108","189.219.221.90","Mozilla/5.0 (Windows NT 10.0; Win64; x64) AppleWebKit/537.36 (KHTML, like Gecko) Chrome/107.0.0.0 Safari/537.36","WebKit","Chrome","107.0.0.0","Windows","10.0","[0]","","15","4",""
"4427","You drop a bowling ball on a light bulb <br> T&uacute tiras una bola de boliche a una bombilla","{""Q0"":4}","trial","76751","survey-likert","72","578645","0.0-5.0-0.60","49","1","2022-11-29 21:25:13","2df368f4e41f066fd1c82c297b4a1108","189.219.221.90","Mozilla/5.0 (Windows NT 10.0; Win64; x64) AppleWebKit/537.36 (KHTML, like Gecko) Chrome/107.0.0.0 Safari/537.36","WebKit","Chrome","107.0.0.0","Windows","10.0","[0]","","14","4",""
"4782","You see how a doctor is taking a stethoscope <br> T&uacute ves como un doctor est&aacute agarrando un estetoscopio","{""Q0"":4}","trial","76751","survey-likert","73","583436","0.0-5.0-0.61","49","1","2022-11-29 21:25:13","2df368f4e41f066fd1c82c297b4a1108","189.219.221.90","Mozilla/5.0 (Windows NT 10.0; Win64; x64) AppleWebKit/537.36 (KHTML, like Gecko) Chrome/107.0.0.0 Safari/537.36","WebKit","Chrome","107.0.0.0","Windows","10.0","[0]","","49","4",""
"3892","You drop a keyboard on the bed <br> T&uacute tiras un teclado a la cama","{""Q0"":4}","trial","76751","survey-likert","74","587338","0.0-5.0-0.62","49","1","2022-11-29 21:25:13","2df368f4e41f066fd1c82c297b4a1108","189.219.221.90","Mozilla/5.0 (Windows NT 10.0; Win64; x64) AppleWebKit/537.36 (KHTML, like Gecko) Chrome/107.0.0.0 Safari/537.36","WebKit","Chrome","107.0.0.0","Windows","10.0","[0]","","36","4",""
"6919","You see how a woman is taking money out of a wallet <br> T&uacute ves como una mujer est&aacute sacando dinero de su billetera","{""Q0"":4}","trial","76751","survey-likert","75","594267","0.0-5.0-0.63","49","1","2022-11-29 21:25:13","2df368f4e41f066fd1c82c297b4a1108","189.219.221.90","Mozilla/5.0 (Windows NT 10.0; Win64; x64) AppleWebKit/537.36 (KHTML, like Gecko) Chrome/107.0.0.0 Safari/537.36","WebKit","Chrome","107.0.0.0","Windows","10.0","[0]","","44","4",""
"5567","You see how a thief is stealing a wallet <br> T&uacute ves como un ladr&oacuten est&aacute robando una billetera","{""Q0"":4}","trial","76751","survey-likert","76","599846","0.0-5.0-0.64","49","1","2022-11-29 21:25:13","2df368f4e41f066fd1c82c297b4a1108","189.219.221.90","Mozilla/5.0 (Windows NT 10.0; Win64; x64) AppleWebKit/537.36 (KHTML, like Gecko) Chrome/107.0.0.0 Safari/537.36","WebKit","Chrome","107.0.0.0","Windows","10.0","[0]","","68","4",""
"3783","You see how an old man is hammering a nail <br> T&uacute ves como un hombre anciano est&aacute martillando un clavo","{""Q0"":4}","trial","76751","survey-likert","77","603638","0.0-5.0-0.65","49","1","2022-11-29 21:25:13","2df368f4e41f066fd1c82c297b4a1108","189.219.221.90","Mozilla/5.0 (Windows NT 10.0; Win64; x64) AppleWebKit/537.36 (KHTML, like Gecko) Chrome/107.0.0.0 Safari/537.36","WebKit","Chrome","107.0.0.0","Windows","10.0","[0]","","29","4",""
"3449","You drop a ring on the newspaper <br> T&uacute tiras un anillo al peri&oacutedico","{""Q0"":4}","trial","76751","survey-likert","78","607097","0.0-5.0-0.66","49","1","2022-11-29 21:25:13","2df368f4e41f066fd1c82c297b4a1108","189.219.221.90","Mozilla/5.0 (Windows NT 10.0; Win64; x64) AppleWebKit/537.36 (KHTML, like Gecko) Chrome/107.0.0.0 Safari/537.36","WebKit","Chrome","107.0.0.0","Windows","10.0","[0]","","41","4",""
"4529","You drop a bowling ball on a wine glass <br> T&uacute tiras una bola de boliche a una copa de vino","{""Q0"":4}","trial","76751","survey-likert","79","611637","0.0-5.0-0.67","49","1","2022-11-29 21:25:13","2df368f4e41f066fd1c82c297b4a1108","189.219.221.90","Mozilla/5.0 (Windows NT 10.0; Win64; x64) AppleWebKit/537.36 (KHTML, like Gecko) Chrome/107.0.0.0 Safari/537.36","WebKit","Chrome","107.0.0.0","Windows","10.0","[0]","","5","4",""
"3461","You see how an elephant is eating a watermelon <br> T&uacute ves como un elefante est&aacute comiendo una sand&iacutea","{""Q0"":4}","trial","76751","survey-likert","80","615116","0.0-5.0-0.68","49","1","2022-11-29 21:25:13","2df368f4e41f066fd1c82c297b4a1108","189.219.221.90","Mozilla/5.0 (Windows NT 10.0; Win64; x64) AppleWebKit/537.36 (KHTML, like Gecko) Chrome/107.0.0.0 Safari/537.36","WebKit","Chrome","107.0.0.0","Windows","10.0","[0]","","31","4",""
"3220","You drop a towel on the TV <br> T&uacute tiras una toalla a la televisi&oacuten","{""Q0"":4}","trial","76751","survey-likert","81","618348","0.0-5.0-0.69","49","1","2022-11-29 21:25:13","2df368f4e41f066fd1c82c297b4a1108","189.219.221.90","Mozilla/5.0 (Windows NT 10.0; Win64; x64) AppleWebKit/537.36 (KHTML, like Gecko) Chrome/107.0.0.0 Safari/537.36","WebKit","Chrome","107.0.0.0","Windows","10.0","[0]","","53","4",""
"4522","You drop a bowling ball on a tile <br> T&uacute tiras una bola de boliche a una baldosa","{""Q0"":4}","trial","76751","survey-likert","82","622882","0.0-5.0-0.70","49","1","2022-11-29 21:25:13","2df368f4e41f066fd1c82c297b4a1108","189.219.221.90","Mozilla/5.0 (Windows NT 10.0; Win64; x64) AppleWebKit/537.36 (KHTML, like Gecko) Chrome/107.0.0.0 Safari/537.36","WebKit","Chrome","107.0.0.0","Windows","10.0","[0]","","22","4",""
"3065","You drop a bowling ball on a donut <br> T&uacute tiras una bola de boliche a una rosquilla","{""Q0"":4}","trial","76751","survey-likert","83","625959","0.0-5.0-0.71","49","1","2022-11-29 21:25:13","2df368f4e41f066fd1c82c297b4a1108","189.219.221.90","Mozilla/5.0 (Windows NT 10.0; Win64; x64) AppleWebKit/537.36 (KHTML, like Gecko) Chrome/107.0.0.0 Safari/537.36","WebKit","Chrome","107.0.0.0","Windows","10.0","[0]","","17","4",""
"8675","
    <p style=""font-size:20px;""> You have completed the experiment portion! </p>
    <p style=""font-size:20px;""> Before you are done, we would like you to answer some basic demographic questions. </p>
    <p style=""font-size:20px;""> Note that your answers to these questions will not affect your compensation/credit. </p>
    <p style=""font-size:20px;""> Click the button below to continue.</p>
    ","0","demo","76751","html-button-response","84","634645","0.0-6.0","49","1","2022-11-29 21:25:13","2df368f4e41f066fd1c82c297b4a1108","189.219.221.90","Mozilla/5.0 (Windows NT 10.0; Win64; x64) AppleWebKit/537.36 (KHTML, like Gecko) Chrome/107.0.0.0 Safari/537.36","WebKit","Chrome","107.0.0.0","Windows","10.0","","","","",""
"43174","","{""Age"":""20"",""Gender"":""female"",""Education"":""16 years""}","demo","76751","survey-text","85","677828","0.0-7.0-0.0","49","1","2022-11-29 21:25:13","2df368f4e41f066fd1c82c297b4a1108","189.219.221.90","Mozilla/5.0 (Windows NT 10.0; Win64; x64) AppleWebKit/537.36 (KHTML, like Gecko) Chrome/107.0.0.0 Safari/537.36","WebKit","Chrome","107.0.0.0","Windows","10.0","","","","",""
"10752","","{""Race"":[""Other""]}","demo","76751","survey-multi-select","86","688594","0.0-7.0-1.0","49","1","2022-11-29 21:25:13","2df368f4e41f066fd1c82c297b4a1108","189.219.221.90","Mozilla/5.0 (Windows NT 10.0; Win64; x64) AppleWebKit/537.36 (KHTML, like Gecko) Chrome/107.0.0.0 Safari/537.36","WebKit","Chrome","107.0.0.0","Windows","10.0","[0]","","","",""
"19633","","{""Latino"":""Yes"",""Alert"":""Morning""}","demo","76751","survey-multi-choice","87","708242","0.0-7.0-2.0","49","1","2022-11-29 21:25:13","2df368f4e41f066fd1c82c297b4a1108","189.219.221.90","Mozilla/5.0 (Windows NT 10.0; Win64; x64) AppleWebKit/537.36 (KHTML, like Gecko) Chrome/107.0.0.0 Safari/537.36","WebKit","Chrome","107.0.0.0","Windows","10.0","[0,1]","","","",""
"12633","","{""Q0"":""no""}","demo","76751","survey-text","88","720895","0.0-7.0-3.0","49","1","2022-11-29 21:25:13","2df368f4e41f066fd1c82c297b4a1108","189.219.221.90","Mozilla/5.0 (Windows NT 10.0; Win64; x64) AppleWebKit/537.36 (KHTML, like Gecko) Chrome/107.0.0.0 Safari/537.36","WebKit","Chrome","107.0.0.0","Windows","10.0","","","","",""
"17438","<p>Thank you for participating! </p><strong>Your completion code is: CXEJB7NH. Please copy-paste this code and submit it on Prolific.</strong><p>Click <a href=""https://drive.google.com/file/d/1c70cdHFlc0AaR6RujLWLJwWkv1RbHQJY/view?usp=sharing"" target=""_blank"" rel=""noopener noreferrer"">here</a> to access the debriefing form and know more about our research. <p> Please click the button below to finish the experiment and save your data.</p> <p> IMPORTANT: Please <strong>do not leave this page </strong> without clicking the button below.</p> <p> You may close the tab/window after you click the button below.","0","","","html-button-response","89","738338","0.0-8.0","49","1","2022-11-29 21:25:13","2df368f4e41f066fd1c82c297b4a1108","189.219.221.90","Mozilla/5.0 (Windows NT 10.0; Win64; x64) AppleWebKit/537.36 (KHTML, like Gecko) Chrome/107.0.0.0 Safari/537.36","WebKit","Chrome","107.0.0.0","Windows","10.0","","","","",""
