"rt","stimulus","response","typeoftrial","subject","trial_type","trial_index","time_elapsed","internal_node_id","run_id","condition","recorded_at","source_code_version","ip","user_agent","device","browser","browser_version","platform","platform_version","question_order","practice_rating","sentence_num","rating","Experiment"
"3176","
        <p style=""font-size:20px;""> Welcome! Thank you for your interest in our study. </p>
        <p style=""font-size:20px;""> This study is being conducted by researchers at Bowdoin College.</p>
        <p style=""font-size:20px;""> In this experiment, you will be asked to rate the accuracy of English and Spanish translations.</p>
        <p style=""font-size:20px;""> The entire experiment should not last more than 20 minutes. You will be paid $3 USD for your participation. </p>
        <p style=""font-size:20px;""> Please click <a href = ""https://drive.google.com/file/d/1L92a02eEKCpaAEipmqDcBCDR7rsarqFE/view?usp=sharing"" target = ""_blank"">here</a> to read the full consent form. </p>
        <p style=""font-size:20px;""> If you agree to participate, please click the button below to continue to experiment instructions.</p>
        ","0","consent","39567","html-button-response","0","3178","0.0-0.0","65","1","2022-11-29 22:05:57","2df368f4e41f066fd1c82c297b4a1108","83.54.40.157","Mozilla/5.0 (Windows NT 10.0; Win64; x64) AppleWebKit/537.36 (KHTML, like Gecko) Chrome/107.0.0.0 Safari/537.36","WebKit","Chrome","107.0.0.0","Windows","10.0","","","","",""
"6330","","{""ID"":""5f03b3d3cfd8165ef5a4ad93""}","ID","39567","survey-text","1","9516","0.0-1.0","65","1","2022-11-29 22:05:57","2df368f4e41f066fd1c82c297b4a1108","83.54.40.157","Mozilla/5.0 (Windows NT 10.0; Win64; x64) AppleWebKit/537.36 (KHTML, like Gecko) Chrome/107.0.0.0 Safari/537.36","WebKit","Chrome","107.0.0.0","Windows","10.0","","","","",""
"16391","
        <p style=""font-size:20px;""> You are about to begin the practice test. </p>
        <p style=""font-size:20px;""> On each trial, you will see a sentence in English and its corresponding Spanish translation. </p>
        <p style=""font-size:20px;""> You will rate the accuracy of the translation on a scale from ""Not at all accurate"" to ""Very accurate."" </p>
        <p style=""font-size:20px;""> If you rate the translation as ""Somewhat innaccurate"" or ""Not at all accurate,"" you will be asked to provide your own translation or a reason why the translation is inaccurate. </p>
        <p style=""font-size:20px;""> Click the button below to continue to the practice session.</p>","0","instructions","39567","html-button-response","2","25910","0.0-2.0","65","1","2022-11-29 22:05:57","2df368f4e41f066fd1c82c297b4a1108","83.54.40.157","Mozilla/5.0 (Windows NT 10.0; Win64; x64) AppleWebKit/537.36 (KHTML, like Gecko) Chrome/107.0.0.0 Safari/537.36","WebKit","Chrome","107.0.0.0","Windows","10.0","","","","",""
"16290","You see how a tiger is playing with a goose <br> T&uacute ves como un le&oacuten come una pizza","{""Q0"":0}","practice","39567","survey-likert","3","42203","0.0-3.0-0.0","65","1","2022-11-29 22:05:57","2df368f4e41f066fd1c82c297b4a1108","83.54.40.157","Mozilla/5.0 (Windows NT 10.0; Win64; x64) AppleWebKit/537.36 (KHTML, like Gecko) Chrome/107.0.0.0 Safari/537.36","WebKit","Chrome","107.0.0.0","Windows","10.0","[0]","0","","",""
"28094","You see how a tiger is playing with a goose <br> T&uacute ves como un le&oacuten come una pizza","{""Q0"":""Ves a un tigre comiendo un trozo de pizza""}","practice_low_rate","39567","survey-text","4","70322","0.0-3.0-1.0-0.0","65","1","2022-11-29 22:05:57","2df368f4e41f066fd1c82c297b4a1108","83.54.40.157","Mozilla/5.0 (Windows NT 10.0; Win64; x64) AppleWebKit/537.36 (KHTML, like Gecko) Chrome/107.0.0.0 Safari/537.36","WebKit","Chrome","107.0.0.0","Windows","10.0","","","5","",""
"7103","You see how an artist is running <br> T&uacute ves como un artista est&aacute corriendo","{""Q0"":4}","practice","39567","survey-likert","5","77428","0.0-3.0-0.1","65","1","2022-11-29 22:05:57","2df368f4e41f066fd1c82c297b4a1108","83.54.40.157","Mozilla/5.0 (Windows NT 10.0; Win64; x64) AppleWebKit/537.36 (KHTML, like Gecko) Chrome/107.0.0.0 Safari/537.36","WebKit","Chrome","107.0.0.0","Windows","10.0","[0]","4","","",""
"7371","You see how a teacher is drawing a picture <br> T&uacute ves como un maestro pinta una foto","{""Q0"":4}","practice","39567","survey-likert","6","84804","0.0-3.0-0.2","65","1","2022-11-29 22:05:57","2df368f4e41f066fd1c82c297b4a1108","83.54.40.157","Mozilla/5.0 (Windows NT 10.0; Win64; x64) AppleWebKit/537.36 (KHTML, like Gecko) Chrome/107.0.0.0 Safari/537.36","WebKit","Chrome","107.0.0.0","Windows","10.0","[0]","4","","",""
"6469","You drop a rock on a phone <br> T&uacute tiras una piedra a un tel&eacutefono","{""Q0"":4}","practice","39567","survey-likert","7","91285","0.0-3.0-0.3","65","1","2022-11-29 22:05:57","2df368f4e41f066fd1c82c297b4a1108","83.54.40.157","Mozilla/5.0 (Windows NT 10.0; Win64; x64) AppleWebKit/537.36 (KHTML, like Gecko) Chrome/107.0.0.0 Safari/537.36","WebKit","Chrome","107.0.0.0","Windows","10.0","[0]","4","","",""
"14608","You drop a bowling ball on a mircrowave <br> T&uacute tiras una bola de boliche a un horno","{""Q0"":1}","practice","39567","survey-likert","8","105900","0.0-3.0-0.4","65","1","2022-11-29 22:05:57","2df368f4e41f066fd1c82c297b4a1108","83.54.40.157","Mozilla/5.0 (Windows NT 10.0; Win64; x64) AppleWebKit/537.36 (KHTML, like Gecko) Chrome/107.0.0.0 Safari/537.36","WebKit","Chrome","107.0.0.0","Windows","10.0","[0]","1","","",""
"8170","You drop a bowling ball on a mircrowave <br> T&uacute tiras una bola de boliche a un horno","{""Q0"":""Tiras una bola de bolos a un microondas""}","practice_low_rate","39567","survey-text","9","114077","0.0-3.0-1.4-0.4","65","1","2022-11-29 22:05:57","2df368f4e41f066fd1c82c297b4a1108","83.54.40.157","Mozilla/5.0 (Windows NT 10.0; Win64; x64) AppleWebKit/537.36 (KHTML, like Gecko) Chrome/107.0.0.0 Safari/537.36","WebKit","Chrome","107.0.0.0","Windows","10.0","","","6","",""
"6032","You see how a duck is playing with a pumpkin <br> T&uacute ves como un pato est&aacute jugando con una calabaza","{""Q0"":4}","practice","39567","survey-likert","10","120111","0.0-3.0-0.5","65","1","2022-11-29 22:05:57","2df368f4e41f066fd1c82c297b4a1108","83.54.40.157","Mozilla/5.0 (Windows NT 10.0; Win64; x64) AppleWebKit/537.36 (KHTML, like Gecko) Chrome/107.0.0.0 Safari/537.36","WebKit","Chrome","107.0.0.0","Windows","10.0","[0]","4","","",""
"3457","<p style=""font-size:20px;"">You have now completed the practice session! </p>
        <p style=""font-size:20px;"">You will now move on to the main experiment. </p>
        <p style=""font-size:20px;"">Please click the button below to continue. </p>","0","movetoexp","39567","html-button-response","11","123586","0.0-4.0","65","1","2022-11-29 22:05:57","2df368f4e41f066fd1c82c297b4a1108","83.54.40.157","Mozilla/5.0 (Windows NT 10.0; Win64; x64) AppleWebKit/537.36 (KHTML, like Gecko) Chrome/107.0.0.0 Safari/537.36","WebKit","Chrome","107.0.0.0","Windows","10.0","","","","",""
"7190","You drop a bowling ball on a cracker <br> T&uacute tiras una bola de boliche a una galleta","{""Q0"":4}","trial","39567","survey-likert","12","130777","0.0-5.0-0.0","65","1","2022-11-29 22:05:57","2df368f4e41f066fd1c82c297b4a1108","83.54.40.157","Mozilla/5.0 (Windows NT 10.0; Win64; x64) AppleWebKit/537.36 (KHTML, like Gecko) Chrome/107.0.0.0 Safari/537.36","WebKit","Chrome","107.0.0.0","Windows","10.0","[0]","","4","4",""
"4239","You see how a mouse is eating cheese <br> T&uacute ves como el rat&oacuten est&aacute comiendo queso","{""Q0"":4}","trial","39567","survey-likert","13","135025","0.0-5.0-0.1","65","1","2022-11-29 22:05:57","2df368f4e41f066fd1c82c297b4a1108","83.54.40.157","Mozilla/5.0 (Windows NT 10.0; Win64; x64) AppleWebKit/537.36 (KHTML, like Gecko) Chrome/107.0.0.0 Safari/537.36","WebKit","Chrome","107.0.0.0","Windows","10.0","[0]","","56","4",""
"7580","You see how a butterfly is sitting on a flower <br> T&uacute ves como una mariposa est&aacute reposando en una flor","{""Q0"":4}","trial","39567","survey-likert","14","142610","0.0-5.0-0.2","65","1","2022-11-29 22:05:57","2df368f4e41f066fd1c82c297b4a1108","83.54.40.157","Mozilla/5.0 (Windows NT 10.0; Win64; x64) AppleWebKit/537.36 (KHTML, like Gecko) Chrome/107.0.0.0 Safari/537.36","WebKit","Chrome","107.0.0.0","Windows","10.0","[0]","","59","4",""
"3684","You see how an owl is sitting on the branch <br> T&uacute ves como un b&uacuteho est&aacute reposando en una rama","{""Q0"":4}","trial","39567","survey-likert","15","146301","0.0-5.0-0.3","65","1","2022-11-29 22:05:57","2df368f4e41f066fd1c82c297b4a1108","83.54.40.157","Mozilla/5.0 (Windows NT 10.0; Win64; x64) AppleWebKit/537.36 (KHTML, like Gecko) Chrome/107.0.0.0 Safari/537.36","WebKit","Chrome","107.0.0.0","Windows","10.0","[0]","","69","4",""
"6661","You see how a doctor is taking a stethoscope <br> T&uacute ves como un doctor est&aacute agarrando un estetoscopio","{""Q0"":4}","trial","39567","survey-likert","16","152969","0.0-5.0-0.4","65","1","2022-11-29 22:05:57","2df368f4e41f066fd1c82c297b4a1108","83.54.40.157","Mozilla/5.0 (Windows NT 10.0; Win64; x64) AppleWebKit/537.36 (KHTML, like Gecko) Chrome/107.0.0.0 Safari/537.36","WebKit","Chrome","107.0.0.0","Windows","10.0","[0]","","49","4",""
"3092","You drop a bowling ball on a chocolate ice-cream <br> T&uacute tiras una bola de boliche a un helado de chocolate","{""Q0"":4}","trial","39567","survey-likert","17","156068","0.0-5.0-0.5","65","1","2022-11-29 22:05:57","2df368f4e41f066fd1c82c297b4a1108","83.54.40.157","Mozilla/5.0 (Windows NT 10.0; Win64; x64) AppleWebKit/537.36 (KHTML, like Gecko) Chrome/107.0.0.0 Safari/537.36","WebKit","Chrome","107.0.0.0","Windows","10.0","[0]","","11","4",""
"4331","You see how an elephant is eating a watermelon <br> T&uacute ves como un elefante est&aacute comiendo una sand&iacutea","{""Q0"":4}","trial","39567","survey-likert","18","160403","0.0-5.0-0.6","65","1","2022-11-29 22:05:57","2df368f4e41f066fd1c82c297b4a1108","83.54.40.157","Mozilla/5.0 (Windows NT 10.0; Win64; x64) AppleWebKit/537.36 (KHTML, like Gecko) Chrome/107.0.0.0 Safari/537.36","WebKit","Chrome","107.0.0.0","Windows","10.0","[0]","","31","4",""
"4656","You see how a musician is playing a guitar <br> T&uacute ves como un m&uacutesico est&aacute tocando la guitarra","{""Q0"":4}","trial","39567","survey-likert","19","165067","0.0-5.0-0.7","65","1","2022-11-29 22:05:57","2df368f4e41f066fd1c82c297b4a1108","83.54.40.157","Mozilla/5.0 (Windows NT 10.0; Win64; x64) AppleWebKit/537.36 (KHTML, like Gecko) Chrome/107.0.0.0 Safari/537.36","WebKit","Chrome","107.0.0.0","Windows","10.0","[0]","","27","4",""
"6968","You drop a bowling ball on an egg <br> T&uacute tiras una bola de boliche a un huevo","{""Q0"":2}","trial","39567","survey-likert","20","172043","0.0-5.0-0.8","65","1","2022-11-29 22:05:57","2df368f4e41f066fd1c82c297b4a1108","83.54.40.157","Mozilla/5.0 (Windows NT 10.0; Win64; x64) AppleWebKit/537.36 (KHTML, like Gecko) Chrome/107.0.0.0 Safari/537.36","WebKit","Chrome","107.0.0.0","Windows","10.0","[0]","","6","2",""
"4700","You drop a bowling ball on a donut <br> T&uacute tiras una bola de boliche a una rosquilla","{""Q0"":3}","trial","39567","survey-likert","21","176751","0.0-5.0-0.9","65","1","2022-11-29 22:05:57","2df368f4e41f066fd1c82c297b4a1108","83.54.40.157","Mozilla/5.0 (Windows NT 10.0; Win64; x64) AppleWebKit/537.36 (KHTML, like Gecko) Chrome/107.0.0.0 Safari/537.36","WebKit","Chrome","107.0.0.0","Windows","10.0","[0]","","17","3",""
"6877","You see how a man is boiling potatoes <br> T&uacute ves a un hombre est&aacute hirviendo papas","{""Q0"":3}","trial","39567","survey-likert","22","183635","0.0-5.0-0.10","65","1","2022-11-29 22:05:57","2df368f4e41f066fd1c82c297b4a1108","83.54.40.157","Mozilla/5.0 (Windows NT 10.0; Win64; x64) AppleWebKit/537.36 (KHTML, like Gecko) Chrome/107.0.0.0 Safari/537.36","WebKit","Chrome","107.0.0.0","Windows","10.0","[0]","","46","3",""
"7608","You drop a bowling ball on a hat <br> T&uacute tiras una bola de boliche a una gorra","{""Q0"":3}","trial","39567","survey-likert","23","191256","0.0-5.0-0.11","65","1","2022-11-29 22:05:57","2df368f4e41f066fd1c82c297b4a1108","83.54.40.157","Mozilla/5.0 (Windows NT 10.0; Win64; x64) AppleWebKit/537.36 (KHTML, like Gecko) Chrome/107.0.0.0 Safari/537.36","WebKit","Chrome","107.0.0.0","Windows","10.0","[0]","","10","3",""
"5654","You see how a giraffe is playing with a zebra <br> T&uacute ves como una jirafa est&aacute jugando con una cebra","{""Q0"":4}","trial","39567","survey-likert","24","196917","0.0-5.0-0.12","65","1","2022-11-29 22:05:57","2df368f4e41f066fd1c82c297b4a1108","83.54.40.157","Mozilla/5.0 (Windows NT 10.0; Win64; x64) AppleWebKit/537.36 (KHTML, like Gecko) Chrome/107.0.0.0 Safari/537.36","WebKit","Chrome","107.0.0.0","Windows","10.0","[0]","","65","4",""
"9199","You drop a bowling ball on a rice cake <br> T&uacute tiras una bola de boliche a una tortita de arroz","{""Q0"":3}","trial","39567","survey-likert","25","206135","0.0-5.0-0.13","65","1","2022-11-29 22:05:57","2df368f4e41f066fd1c82c297b4a1108","83.54.40.157","Mozilla/5.0 (Windows NT 10.0; Win64; x64) AppleWebKit/537.36 (KHTML, like Gecko) Chrome/107.0.0.0 Safari/537.36","WebKit","Chrome","107.0.0.0","Windows","10.0","[0]","","18","3",""
"4284","You drop a bowling ball on a light bulb <br> T&uacute tiras una bola de boliche a una bombilla","{""Q0"":4}","trial","39567","survey-likert","26","210424","0.0-5.0-0.14","65","1","2022-11-29 22:05:57","2df368f4e41f066fd1c82c297b4a1108","83.54.40.157","Mozilla/5.0 (Windows NT 10.0; Win64; x64) AppleWebKit/537.36 (KHTML, like Gecko) Chrome/107.0.0.0 Safari/537.36","WebKit","Chrome","107.0.0.0","Windows","10.0","[0]","","14","4",""
"3713","You see how a postman is driving a car <br> T&uacute ves como un cartero est&aacute conduciendo un coche","{""Q0"":3}","trial","39567","survey-likert","27","214145","0.0-5.0-0.15","65","1","2022-11-29 22:05:57","2df368f4e41f066fd1c82c297b4a1108","83.54.40.157","Mozilla/5.0 (Windows NT 10.0; Win64; x64) AppleWebKit/537.36 (KHTML, like Gecko) Chrome/107.0.0.0 Safari/537.36","WebKit","Chrome","107.0.0.0","Windows","10.0","[0]","","32","3",""
"3220","You drop a fork on the plate <br> T&uacute tiras un tenedor al plato","{""Q0"":4}","trial","39567","survey-likert","28","217379","0.0-5.0-0.16","65","1","2022-11-29 22:05:57","2df368f4e41f066fd1c82c297b4a1108","83.54.40.157","Mozilla/5.0 (Windows NT 10.0; Win64; x64) AppleWebKit/537.36 (KHTML, like Gecko) Chrome/107.0.0.0 Safari/537.36","WebKit","Chrome","107.0.0.0","Windows","10.0","[0]","","26","4",""
"5548","You drop a cushion on the magazine <br> T&uacute tiras un coj&iacuten a la revista","{""Q0"":4}","trial","39567","survey-likert","29","222945","0.0-5.0-0.17","65","1","2022-11-29 22:05:57","2df368f4e41f066fd1c82c297b4a1108","83.54.40.157","Mozilla/5.0 (Windows NT 10.0; Win64; x64) AppleWebKit/537.36 (KHTML, like Gecko) Chrome/107.0.0.0 Safari/537.36","WebKit","Chrome","107.0.0.0","Windows","10.0","[0]","","38","4",""
"6383","You see how a teenage girl is playing the piano <br> T&uacute ves como una ni&ntildea adolescente est&aacute tocando el piano","{""Q0"":3}","trial","39567","survey-likert","30","229346","0.0-5.0-0.18","65","1","2022-11-29 22:05:57","2df368f4e41f066fd1c82c297b4a1108","83.54.40.157","Mozilla/5.0 (Windows NT 10.0; Win64; x64) AppleWebKit/537.36 (KHTML, like Gecko) Chrome/107.0.0.0 Safari/537.36","WebKit","Chrome","107.0.0.0","Windows","10.0","[0]","","54","3",""
"5260","You drop a bowling ball on a porcelain figure <br> T&uacute tiras una bola de boliche a una figura de porcelana","{""Q0"":4}","trial","39567","survey-likert","31","234614","0.0-5.0-0.19","65","1","2022-11-29 22:05:57","2df368f4e41f066fd1c82c297b4a1108","83.54.40.157","Mozilla/5.0 (Windows NT 10.0; Win64; x64) AppleWebKit/537.36 (KHTML, like Gecko) Chrome/107.0.0.0 Safari/537.36","WebKit","Chrome","107.0.0.0","Windows","10.0","[0]","","1","4",""
"7756","You drop a bowling ball on a tomato <br> T&uacute tiras una bola de boliche a un tomate","{""Q0"":3}","trial","39567","survey-likert","32","242382","0.0-5.0-0.20","65","1","2022-11-29 22:05:57","2df368f4e41f066fd1c82c297b4a1108","83.54.40.157","Mozilla/5.0 (Windows NT 10.0; Win64; x64) AppleWebKit/537.36 (KHTML, like Gecko) Chrome/107.0.0.0 Safari/537.36","WebKit","Chrome","107.0.0.0","Windows","10.0","[0]","","23","3",""
"4581","You see how a police officer is talking on the phone <br> T&uacute ves como un polic&iacutea est&aacute hablando por el tel&eacutefono","{""Q0"":4}","trial","39567","survey-likert","33","246986","0.0-5.0-0.21","65","1","2022-11-29 22:05:57","2df368f4e41f066fd1c82c297b4a1108","83.54.40.157","Mozilla/5.0 (Windows NT 10.0; Win64; x64) AppleWebKit/537.36 (KHTML, like Gecko) Chrome/107.0.0.0 Safari/537.36","WebKit","Chrome","107.0.0.0","Windows","10.0","[0]","","62","4",""
"4899","You drop a bowling ball on an empty can of beer <br> T&uacute tiras una bola de boliche a una lata de cerveza vac&iacutea","{""Q0"":4}","trial","39567","survey-likert","34","251894","0.0-5.0-0.22","65","1","2022-11-29 22:05:57","2df368f4e41f066fd1c82c297b4a1108","83.54.40.157","Mozilla/5.0 (Windows NT 10.0; Win64; x64) AppleWebKit/537.36 (KHTML, like Gecko) Chrome/107.0.0.0 Safari/537.36","WebKit","Chrome","107.0.0.0","Windows","10.0","[0]","","3","4",""
"6163","You drop a remote on the rug <br> T&uacute tiras un control remoto a la alfombra","{""Q0"":3}","trial","39567","survey-likert","35","258068","0.0-5.0-0.23","65","1","2022-11-29 22:05:57","2df368f4e41f066fd1c82c297b4a1108","83.54.40.157","Mozilla/5.0 (Windows NT 10.0; Win64; x64) AppleWebKit/537.36 (KHTML, like Gecko) Chrome/107.0.0.0 Safari/537.36","WebKit","Chrome","107.0.0.0","Windows","10.0","[0]","","39","3",""
"10138","You see how a man is shaving his beard <br> T&uacute ves como un hombre se est&aacute afeitando la barba","{""Q0"":4}","trial","39567","survey-likert","36","268214","0.0-5.0-0.24","65","1","2022-11-29 22:05:57","2df368f4e41f066fd1c82c297b4a1108","83.54.40.157","Mozilla/5.0 (Windows NT 10.0; Win64; x64) AppleWebKit/537.36 (KHTML, like Gecko) Chrome/107.0.0.0 Safari/537.36","WebKit","Chrome","107.0.0.0","Windows","10.0","[0]","","43","4",""
"6857","You see how a puppy is playing with a ball <br> T&uacute ves como un cachorro est&aacute jugando con una pelota","{""Q0"":4}","trial","39567","survey-likert","37","275089","0.0-5.0-0.25","65","1","2022-11-29 22:05:57","2df368f4e41f066fd1c82c297b4a1108","83.54.40.157","Mozilla/5.0 (Windows NT 10.0; Win64; x64) AppleWebKit/537.36 (KHTML, like Gecko) Chrome/107.0.0.0 Safari/537.36","WebKit","Chrome","107.0.0.0","Windows","10.0","[0]","","34","4",""
"4499","You drop a thermometer on the box <br> T&uacute tiras un term&oacutemetro a la caja","{""Q0"":4}","trial","39567","survey-likert","38","279608","0.0-5.0-0.26","65","1","2022-11-29 22:05:57","2df368f4e41f066fd1c82c297b4a1108","83.54.40.157","Mozilla/5.0 (Windows NT 10.0; Win64; x64) AppleWebKit/537.36 (KHTML, like Gecko) Chrome/107.0.0.0 Safari/537.36","WebKit","Chrome","107.0.0.0","Windows","10.0","[0]","","70","4",""
"8066","You see how a kitten is playing in the sandbox <br> T&uacute ves como un gatito est&aacute jugando en la caja de arena","{""Q0"":4}","trial","39567","survey-likert","39","287682","0.0-5.0-0.27","65","1","2022-11-29 22:05:57","2df368f4e41f066fd1c82c297b4a1108","83.54.40.157","Mozilla/5.0 (Windows NT 10.0; Win64; x64) AppleWebKit/537.36 (KHTML, like Gecko) Chrome/107.0.0.0 Safari/537.36","WebKit","Chrome","107.0.0.0","Windows","10.0","[0]","","52","4",""
"3763","You drop a bowling ball on a ceramic plate <br> T&uacute tiras una bola de boliche a un plato de cer&aacutemica","{""Q0"":4}","trial","39567","survey-likert","40","291464","0.0-5.0-0.28","65","1","2022-11-29 22:05:57","2df368f4e41f066fd1c82c297b4a1108","83.54.40.157","Mozilla/5.0 (Windows NT 10.0; Win64; x64) AppleWebKit/537.36 (KHTML, like Gecko) Chrome/107.0.0.0 Safari/537.36","WebKit","Chrome","107.0.0.0","Windows","10.0","[0]","","19","4",""
"5122","You drop a watch on the laptop <br> T&uacute tiras un reloj al port&aacutetil","{""Q0"":4}","trial","39567","survey-likert","41","296605","0.0-5.0-0.29","65","1","2022-11-29 22:05:57","2df368f4e41f066fd1c82c297b4a1108","83.54.40.157","Mozilla/5.0 (Windows NT 10.0; Win64; x64) AppleWebKit/537.36 (KHTML, like Gecko) Chrome/107.0.0.0 Safari/537.36","WebKit","Chrome","107.0.0.0","Windows","10.0","[0]","","37","4",""
"5093","You see how a zebra is playing with a horse <br> T&uacute ves como una cebra est&aacute jugando con un caballo","{""Q0"":4}","trial","39567","survey-likert","42","301708","0.0-5.0-0.30","65","1","2022-11-29 22:05:57","2df368f4e41f066fd1c82c297b4a1108","83.54.40.157","Mozilla/5.0 (Windows NT 10.0; Win64; x64) AppleWebKit/537.36 (KHTML, like Gecko) Chrome/107.0.0.0 Safari/537.36","WebKit","Chrome","107.0.0.0","Windows","10.0","[0]","","66","4",""
"6322","You drop a keyboard on the bed <br> T&uacute tiras un teclado a la cama","{""Q0"":4}","trial","39567","survey-likert","43","308051","0.0-5.0-0.31","65","1","2022-11-29 22:05:57","2df368f4e41f066fd1c82c297b4a1108","83.54.40.157","Mozilla/5.0 (Windows NT 10.0; Win64; x64) AppleWebKit/537.36 (KHTML, like Gecko) Chrome/107.0.0.0 Safari/537.36","WebKit","Chrome","107.0.0.0","Windows","10.0","[0]","","36","4",""
"4022","You see how a parrot is eating an apple <br> T&uacute ves como un loro est&aacute comiendo una manzana","{""Q0"":4}","trial","39567","survey-likert","44","312094","0.0-5.0-0.32","65","1","2022-11-29 22:05:57","2df368f4e41f066fd1c82c297b4a1108","83.54.40.157","Mozilla/5.0 (Windows NT 10.0; Win64; x64) AppleWebKit/537.36 (KHTML, like Gecko) Chrome/107.0.0.0 Safari/537.36","WebKit","Chrome","107.0.0.0","Windows","10.0","[0]","","58","4",""
"19212","You drop a bowling ball on a paper cup <br> T&uacute tiras una bola de boliche a un vaso de papel","{""Q0"":1}","trial","39567","survey-likert","45","331313","0.0-5.0-0.33","65","1","2022-11-29 22:05:57","2df368f4e41f066fd1c82c297b4a1108","83.54.40.157","Mozilla/5.0 (Windows NT 10.0; Win64; x64) AppleWebKit/537.36 (KHTML, like Gecko) Chrome/107.0.0.0 Safari/537.36","WebKit","Chrome","107.0.0.0","Windows","10.0","[0]","","24","1",""
"1279","You drop a bowling ball on a paper cup <br> T&uacute tiras una bola de boliche a un vaso de papel","{""Q0"":""Dejas caer una bola de bolos en un vaso de papel""}","low_rate","39567","survey-text","46","332617","0.0-5.0-1.33-0.33","65","1","2022-11-29 22:05:57","2df368f4e41f066fd1c82c297b4a1108","83.54.40.157","Mozilla/5.0 (Windows NT 10.0; Win64; x64) AppleWebKit/537.36 (KHTML, like Gecko) Chrome/107.0.0.0 Safari/537.36","WebKit","Chrome","107.0.0.0","Windows","10.0","","","24","",""
"6140","You see how a woman is paying with a debit card <br> T&uacute ves como una mujer est&aacute pagando con una tarjeta de d&eacutebito","{""Q0"":4}","trial","39567","survey-likert","47","338762","0.0-5.0-0.34","65","1","2022-11-29 22:05:57","2df368f4e41f066fd1c82c297b4a1108","83.54.40.157","Mozilla/5.0 (Windows NT 10.0; Win64; x64) AppleWebKit/537.36 (KHTML, like Gecko) Chrome/107.0.0.0 Safari/537.36","WebKit","Chrome","107.0.0.0","Windows","10.0","[0]","","64","4",""
"5003","You drop a bowling ball on a blackberry <br> T&uacute tiras una bola de boliche a una mora","{""Q0"":4}","trial","39567","survey-likert","48","343773","0.0-5.0-0.35","65","1","2022-11-29 22:05:57","2df368f4e41f066fd1c82c297b4a1108","83.54.40.157","Mozilla/5.0 (Windows NT 10.0; Win64; x64) AppleWebKit/537.36 (KHTML, like Gecko) Chrome/107.0.0.0 Safari/537.36","WebKit","Chrome","107.0.0.0","Windows","10.0","[0]","","8","4",""
"4469","You see how an old man is hammering a nail <br> T&uacute ves como un hombre anciano est&aacute martillando un clavo","{""Q0"":4}","trial","39567","survey-likert","49","348250","0.0-5.0-0.36","65","1","2022-11-29 22:05:57","2df368f4e41f066fd1c82c297b4a1108","83.54.40.157","Mozilla/5.0 (Windows NT 10.0; Win64; x64) AppleWebKit/537.36 (KHTML, like Gecko) Chrome/107.0.0.0 Safari/537.36","WebKit","Chrome","107.0.0.0","Windows","10.0","[0]","","29","4",""
"3812","You see how a hairdresser is taking scissors <br> T&uacute ves como una peluquera est&aacute agarrando las tijeras","{""Q0"":4}","trial","39567","survey-likert","50","352069","0.0-5.0-0.37","65","1","2022-11-29 22:05:57","2df368f4e41f066fd1c82c297b4a1108","83.54.40.157","Mozilla/5.0 (Windows NT 10.0; Win64; x64) AppleWebKit/537.36 (KHTML, like Gecko) Chrome/107.0.0.0 Safari/537.36","WebKit","Chrome","107.0.0.0","Windows","10.0","[0]","","60","4",""
"3107","You drop a bowling ball on glasses <br> T&uacute tiras una bola de boliche a unas gafas","{""Q0"":4}","trial","39567","survey-likert","51","355182","0.0-5.0-0.38","65","1","2022-11-29 22:05:57","2df368f4e41f066fd1c82c297b4a1108","83.54.40.157","Mozilla/5.0 (Windows NT 10.0; Win64; x64) AppleWebKit/537.36 (KHTML, like Gecko) Chrome/107.0.0.0 Safari/537.36","WebKit","Chrome","107.0.0.0","Windows","10.0","[0]","","9","4",""
"8984","You drop a toothbrush on the sponge <br> T&uacute tiras un cepillo de dientes en la esponja","{""Q0"":4}","trial","39567","survey-likert","52","364178","0.0-5.0-0.39","65","1","2022-11-29 22:05:57","2df368f4e41f066fd1c82c297b4a1108","83.54.40.157","Mozilla/5.0 (Windows NT 10.0; Win64; x64) AppleWebKit/537.36 (KHTML, like Gecko) Chrome/107.0.0.0 Safari/537.36","WebKit","Chrome","107.0.0.0","Windows","10.0","[0]","","25","4",""
"3822","You drop a cabbage on the table <br> T&uacute tiras una col a la mesa","{""Q0"":4}","trial","39567","survey-likert","53","368007","0.0-5.0-0.40","65","1","2022-11-29 22:05:57","2df368f4e41f066fd1c82c297b4a1108","83.54.40.157","Mozilla/5.0 (Windows NT 10.0; Win64; x64) AppleWebKit/537.36 (KHTML, like Gecko) Chrome/107.0.0.0 Safari/537.36","WebKit","Chrome","107.0.0.0","Windows","10.0","[0]","","35","4",""
"4080","You drop a towel on the TV <br> T&uacute tiras una toalla a la televisi&oacuten","{""Q0"":4}","trial","39567","survey-likert","54","372095","0.0-5.0-0.41","65","1","2022-11-29 22:05:57","2df368f4e41f066fd1c82c297b4a1108","83.54.40.157","Mozilla/5.0 (Windows NT 10.0; Win64; x64) AppleWebKit/537.36 (KHTML, like Gecko) Chrome/107.0.0.0 Safari/537.36","WebKit","Chrome","107.0.0.0","Windows","10.0","[0]","","53","4",""
"2170","You drop a pencil on the shoe <br> T&uacute tiras un l&aacutepiz al zapato","{""Q0"":4}","trial","39567","survey-likert","55","374273","0.0-5.0-0.42","65","1","2022-11-29 22:05:57","2df368f4e41f066fd1c82c297b4a1108","83.54.40.157","Mozilla/5.0 (Windows NT 10.0; Win64; x64) AppleWebKit/537.36 (KHTML, like Gecko) Chrome/107.0.0.0 Safari/537.36","WebKit","Chrome","107.0.0.0","Windows","10.0","[0]","","40","4",""
"2314","You drop a ring on the newspaper <br> T&uacute tiras un anillo al peri&oacutedico","{""Q0"":4}","trial","39567","survey-likert","56","376596","0.0-5.0-0.43","65","1","2022-11-29 22:05:57","2df368f4e41f066fd1c82c297b4a1108","83.54.40.157","Mozilla/5.0 (Windows NT 10.0; Win64; x64) AppleWebKit/537.36 (KHTML, like Gecko) Chrome/107.0.0.0 Safari/537.36","WebKit","Chrome","107.0.0.0","Windows","10.0","[0]","","41","4",""
"3062","You see how a panda is resting on a tree <br> T&uacute ves como un panda est&aacute descansando en un &aacuterbol","{""Q0"":4}","trial","39567","survey-likert","57","379671","0.0-5.0-0.44","65","1","2022-11-29 22:05:57","2df368f4e41f066fd1c82c297b4a1108","83.54.40.157","Mozilla/5.0 (Windows NT 10.0; Win64; x64) AppleWebKit/537.36 (KHTML, like Gecko) Chrome/107.0.0.0 Safari/537.36","WebKit","Chrome","107.0.0.0","Windows","10.0","[0]","","57","4",""
"3652","You see how an actress is taking a microphone <br> T&uacute ves como una actriz est&aacute agarrando el micr&oacutefono","{""Q0"":4}","trial","39567","survey-likert","58","383330","0.0-5.0-0.45","65","1","2022-11-29 22:05:57","2df368f4e41f066fd1c82c297b4a1108","83.54.40.157","Mozilla/5.0 (Windows NT 10.0; Win64; x64) AppleWebKit/537.36 (KHTML, like Gecko) Chrome/107.0.0.0 Safari/537.36","WebKit","Chrome","107.0.0.0","Windows","10.0","[0]","","51","4",""
"4076","You see how a cook is taking a knife <br> T&uacute ves como un cocinero est&aacute agarrando un cuchillo","{""Q0"":4}","trial","39567","survey-likert","59","387419","0.0-5.0-0.46","65","1","2022-11-29 22:05:57","2df368f4e41f066fd1c82c297b4a1108","83.54.40.157","Mozilla/5.0 (Windows NT 10.0; Win64; x64) AppleWebKit/537.36 (KHTML, like Gecko) Chrome/107.0.0.0 Safari/537.36","WebKit","Chrome","107.0.0.0","Windows","10.0","[0]","","71","4",""
"2484","You see how a pilot is reading a book <br> T&uacute ves como un piloto est&aacute leyendo un libro","{""Q0"":4}","trial","39567","survey-likert","60","389915","0.0-5.0-0.47","65","1","2022-11-29 22:05:57","2df368f4e41f066fd1c82c297b4a1108","83.54.40.157","Mozilla/5.0 (Windows NT 10.0; Win64; x64) AppleWebKit/537.36 (KHTML, like Gecko) Chrome/107.0.0.0 Safari/537.36","WebKit","Chrome","107.0.0.0","Windows","10.0","[0]","","61","4",""
"2314","You see how a donkey is drinking water <br> T&uacute ves como un burro est&aacute bebiendo agua","{""Q0"":4}","trial","39567","survey-likert","61","392237","0.0-5.0-0.48","65","1","2022-11-29 22:05:57","2df368f4e41f066fd1c82c297b4a1108","83.54.40.157","Mozilla/5.0 (Windows NT 10.0; Win64; x64) AppleWebKit/537.36 (KHTML, like Gecko) Chrome/107.0.0.0 Safari/537.36","WebKit","Chrome","107.0.0.0","Windows","10.0","[0]","","45","4",""
"4186","You drop a bowling ball on a tile <br> T&uacute tiras una bola de boliche a una baldosa","{""Q0"":4}","trial","39567","survey-likert","62","396432","0.0-5.0-0.49","65","1","2022-11-29 22:05:57","2df368f4e41f066fd1c82c297b4a1108","83.54.40.157","Mozilla/5.0 (Windows NT 10.0; Win64; x64) AppleWebKit/537.36 (KHTML, like Gecko) Chrome/107.0.0.0 Safari/537.36","WebKit","Chrome","107.0.0.0","Windows","10.0","[0]","","22","4",""
"3020","You see how an astronaut is putting on a space suit <br> T&uacute ves como un astronauta se est&aacute poniendo su traje espacial","{""Q0"":4}","trial","39567","survey-likert","63","399461","0.0-5.0-0.50","65","1","2022-11-29 22:05:57","2df368f4e41f066fd1c82c297b4a1108","83.54.40.157","Mozilla/5.0 (Windows NT 10.0; Win64; x64) AppleWebKit/537.36 (KHTML, like Gecko) Chrome/107.0.0.0 Safari/537.36","WebKit","Chrome","107.0.0.0","Windows","10.0","[0]","","33","4",""
"3803","You see how a nurse is taking a syringe <br> T&uacute ves como una enfermera est&aacute agarrando una jeringuilla","{""Q0"":4}","trial","39567","survey-likert","64","403277","0.0-5.0-0.51","65","1","2022-11-29 22:05:57","2df368f4e41f066fd1c82c297b4a1108","83.54.40.157","Mozilla/5.0 (Windows NT 10.0; Win64; x64) AppleWebKit/537.36 (KHTML, like Gecko) Chrome/107.0.0.0 Safari/537.36","WebKit","Chrome","107.0.0.0","Windows","10.0","[0]","","48","4",""
"3767","You see how a dentist is drinking a can of cola <br> T&uacute ves como un dentista est&aacute bebiendo una lata de cola","{""Q0"":4}","trial","39567","survey-likert","65","407060","0.0-5.0-0.52","65","1","2022-11-29 22:05:57","2df368f4e41f066fd1c82c297b4a1108","83.54.40.157","Mozilla/5.0 (Windows NT 10.0; Win64; x64) AppleWebKit/537.36 (KHTML, like Gecko) Chrome/107.0.0.0 Safari/537.36","WebKit","Chrome","107.0.0.0","Windows","10.0","[0]","","47","4",""
"2179","You drop a bowling ball on a piece of cake <br> T&uacute tiras una bola de boliche a un trozo de pastel","{""Q0"":4}","trial","39567","survey-likert","66","409248","0.0-5.0-0.53","65","1","2022-11-29 22:05:57","2df368f4e41f066fd1c82c297b4a1108","83.54.40.157","Mozilla/5.0 (Windows NT 10.0; Win64; x64) AppleWebKit/537.36 (KHTML, like Gecko) Chrome/107.0.0.0 Safari/537.36","WebKit","Chrome","107.0.0.0","Windows","10.0","[0]","","2","4",""
"1741","You drop a bowling ball on an iPhone <br> T&uacute tiras una bola de boliche a un iPhone","{""Q0"":4}","trial","39567","survey-likert","67","411000","0.0-5.0-0.54","65","1","2022-11-29 22:05:57","2df368f4e41f066fd1c82c297b4a1108","83.54.40.157","Mozilla/5.0 (Windows NT 10.0; Win64; x64) AppleWebKit/537.36 (KHTML, like Gecko) Chrome/107.0.0.0 Safari/537.36","WebKit","Chrome","107.0.0.0","Windows","10.0","[0]","","13","4",""
"2959","You drop a bowling ball on a piece of sushi <br> T&uacute tiras una bola de boliche a un pedazo de sushi","{""Q0"":4}","trial","39567","survey-likert","68","413968","0.0-5.0-0.55","65","1","2022-11-29 22:05:57","2df368f4e41f066fd1c82c297b4a1108","83.54.40.157","Mozilla/5.0 (Windows NT 10.0; Win64; x64) AppleWebKit/537.36 (KHTML, like Gecko) Chrome/107.0.0.0 Safari/537.36","WebKit","Chrome","107.0.0.0","Windows","10.0","[0]","","21","4",""
"4718","You see how a horse is chewing hay <br> T&uacute ves como un caballo est&aacute masticando el heno","{""Q0"":4}","trial","39567","survey-likert","69","418692","0.0-5.0-0.56","65","1","2022-11-29 22:05:57","2df368f4e41f066fd1c82c297b4a1108","83.54.40.157","Mozilla/5.0 (Windows NT 10.0; Win64; x64) AppleWebKit/537.36 (KHTML, like Gecko) Chrome/107.0.0.0 Safari/537.36","WebKit","Chrome","107.0.0.0","Windows","10.0","[0]","","55","4",""
"3932","You see how a president is writing in the notebook <br> T&uacute ves como un presidente est&aacute escribiendo en la libreta","{""Q0"":4}","trial","39567","survey-likert","70","422632","0.0-5.0-0.57","65","1","2022-11-29 22:05:57","2df368f4e41f066fd1c82c297b4a1108","83.54.40.157","Mozilla/5.0 (Windows NT 10.0; Win64; x64) AppleWebKit/537.36 (KHTML, like Gecko) Chrome/107.0.0.0 Safari/537.36","WebKit","Chrome","107.0.0.0","Windows","10.0","[0]","","63","4",""
"5132","You see how a student is writing on a board <br> T&uacute ves como un estudiante est&aacute escribiendo en la pizarra","{""Q0"":4}","trial","39567","survey-likert","71","427781","0.0-5.0-0.58","65","1","2022-11-29 22:05:57","2df368f4e41f066fd1c82c297b4a1108","83.54.40.157","Mozilla/5.0 (Windows NT 10.0; Win64; x64) AppleWebKit/537.36 (KHTML, like Gecko) Chrome/107.0.0.0 Safari/537.36","WebKit","Chrome","107.0.0.0","Windows","10.0","[0]","","50","4",""
"4352","You see how a thief is stealing a wallet <br> T&uacute ves como un ladr&oacuten est&aacute robando una billetera","{""Q0"":4}","trial","39567","survey-likert","72","432140","0.0-5.0-0.59","65","1","2022-11-29 22:05:57","2df368f4e41f066fd1c82c297b4a1108","83.54.40.157","Mozilla/5.0 (Windows NT 10.0; Win64; x64) AppleWebKit/537.36 (KHTML, like Gecko) Chrome/107.0.0.0 Safari/537.36","WebKit","Chrome","107.0.0.0","Windows","10.0","[0]","","68","4",""
"3518","You drop a needle on the mouse pad <br> T&uacute tiras una aguja a la alfombrilla para el rat&oacuten","{""Q0"":4}","trial","39567","survey-likert","73","435665","0.0-5.0-0.60","65","1","2022-11-29 22:05:57","2df368f4e41f066fd1c82c297b4a1108","83.54.40.157","Mozilla/5.0 (Windows NT 10.0; Win64; x64) AppleWebKit/537.36 (KHTML, like Gecko) Chrome/107.0.0.0 Safari/537.36","WebKit","Chrome","107.0.0.0","Windows","10.0","[0]","","42","4",""
"2642","You drop a bowling ball on a strawberry <br> T&uacute tiras una bola de boliche a una fresa","{""Q0"":4}","trial","39567","survey-likert","74","438314","0.0-5.0-0.61","65","1","2022-11-29 22:05:57","2df368f4e41f066fd1c82c297b4a1108","83.54.40.157","Mozilla/5.0 (Windows NT 10.0; Win64; x64) AppleWebKit/537.36 (KHTML, like Gecko) Chrome/107.0.0.0 Safari/537.36","WebKit","Chrome","107.0.0.0","Windows","10.0","[0]","","20","4",""
"4917","You drop a bowling ball on an egg flan <br> T&uacute tiras una bola de boliche a un flan","{""Q0"":4}","trial","39567","survey-likert","75","443237","0.0-5.0-0.62","65","1","2022-11-29 22:05:57","2df368f4e41f066fd1c82c297b4a1108","83.54.40.157","Mozilla/5.0 (Windows NT 10.0; Win64; x64) AppleWebKit/537.36 (KHTML, like Gecko) Chrome/107.0.0.0 Safari/537.36","WebKit","Chrome","107.0.0.0","Windows","10.0","[0]","","7","4",""
"3259","You see how a man is playing with a cat <br> T&uacute ves como un hombre est&aacute jugando con un gato","{""Q0"":4}","trial","39567","survey-likert","76","446510","0.0-5.0-0.63","65","1","2022-11-29 22:05:57","2df368f4e41f066fd1c82c297b4a1108","83.54.40.157","Mozilla/5.0 (Windows NT 10.0; Win64; x64) AppleWebKit/537.36 (KHTML, like Gecko) Chrome/107.0.0.0 Safari/537.36","WebKit","Chrome","107.0.0.0","Windows","10.0","[0]","","67","4",""
"1056","You drop a bowling ball on a mirror <br> T&uacute tiras una bola de boliche a un espejo","{""Q0"":4}","trial","39567","survey-likert","77","447579","0.0-5.0-0.64","65","1","2022-11-29 22:05:57","2df368f4e41f066fd1c82c297b4a1108","83.54.40.157","Mozilla/5.0 (Windows NT 10.0; Win64; x64) AppleWebKit/537.36 (KHTML, like Gecko) Chrome/107.0.0.0 Safari/537.36","WebKit","Chrome","107.0.0.0","Windows","10.0","[0]","","15","4",""
"1231","You drop a bowling ball on a chocolate muffin <br> T&uacute tiras una bola de boliche a una magdalena de chocolate","{""Q0"":4}","trial","39567","survey-likert","78","448823","0.0-5.0-0.65","65","1","2022-11-29 22:05:57","2df368f4e41f066fd1c82c297b4a1108","83.54.40.157","Mozilla/5.0 (Windows NT 10.0; Win64; x64) AppleWebKit/537.36 (KHTML, like Gecko) Chrome/107.0.0.0 Safari/537.36","WebKit","Chrome","107.0.0.0","Windows","10.0","[0]","","16","4",""
"1440","You see how a photographer is taking a photo of a lion <br> T&uacute ves como un fot&oacutegrafo est&aacute tomando una foto de un le&oacuten","{""Q0"":4}","trial","39567","survey-likert","79","450273","0.0-5.0-0.66","65","1","2022-11-29 22:05:57","2df368f4e41f066fd1c82c297b4a1108","83.54.40.157","Mozilla/5.0 (Windows NT 10.0; Win64; x64) AppleWebKit/537.36 (KHTML, like Gecko) Chrome/107.0.0.0 Safari/537.36","WebKit","Chrome","107.0.0.0","Windows","10.0","[0]","","72","4",""
"963","You see how a woman is taking money out of a wallet <br> T&uacute ves como una mujer est&aacute sacando dinero de su billetera","{""Q0"":4}","trial","39567","survey-likert","80","451249","0.0-5.0-0.67","65","1","2022-11-29 22:05:57","2df368f4e41f066fd1c82c297b4a1108","83.54.40.157","Mozilla/5.0 (Windows NT 10.0; Win64; x64) AppleWebKit/537.36 (KHTML, like Gecko) Chrome/107.0.0.0 Safari/537.36","WebKit","Chrome","107.0.0.0","Windows","10.0","[0]","","44","4",""
"907","You drop a bowling ball on a wine glass <br> T&uacute tiras una bola de boliche a una copa de vino","{""Q0"":4}","trial","39567","survey-likert","81","452165","0.0-5.0-0.68","65","1","2022-11-29 22:05:57","2df368f4e41f066fd1c82c297b4a1108","83.54.40.157","Mozilla/5.0 (Windows NT 10.0; Win64; x64) AppleWebKit/537.36 (KHTML, like Gecko) Chrome/107.0.0.0 Safari/537.36","WebKit","Chrome","107.0.0.0","Windows","10.0","[0]","","5","4",""
"1404","You drop a bowling ball on an iPAD <br> T&uacute tiras una bola de boliche a un iPad","{""Q0"":4}","trial","39567","survey-likert","82","453578","0.0-5.0-0.69","65","1","2022-11-29 22:05:57","2df368f4e41f066fd1c82c297b4a1108","83.54.40.157","Mozilla/5.0 (Windows NT 10.0; Win64; x64) AppleWebKit/537.36 (KHTML, like Gecko) Chrome/107.0.0.0 Safari/537.36","WebKit","Chrome","107.0.0.0","Windows","10.0","[0]","","12","4",""
"5751","You see how a boy is peeling a banana <br> T&uacute ves como un ni&ntildeo est&aacute pelando una banana","{""Q0"":4}","trial","39567","survey-likert","83","459342","0.0-5.0-0.70","65","1","2022-11-29 22:05:57","2df368f4e41f066fd1c82c297b4a1108","83.54.40.157","Mozilla/5.0 (Windows NT 10.0; Win64; x64) AppleWebKit/537.36 (KHTML, like Gecko) Chrome/107.0.0.0 Safari/537.36","WebKit","Chrome","107.0.0.0","Windows","10.0","[0]","","30","4",""
"2671","You see how a cat is drinking water from a bowl <br> T&uacute ves como un gato est&aacute bebiendo agua de un cuenco","{""Q0"":4}","trial","39567","survey-likert","84","462021","0.0-5.0-0.71","65","1","2022-11-29 22:05:57","2df368f4e41f066fd1c82c297b4a1108","83.54.40.157","Mozilla/5.0 (Windows NT 10.0; Win64; x64) AppleWebKit/537.36 (KHTML, like Gecko) Chrome/107.0.0.0 Safari/537.36","WebKit","Chrome","107.0.0.0","Windows","10.0","[0]","","28","4",""
"5293","
    <p style=""font-size:20px;""> You have completed the experiment portion! </p>
    <p style=""font-size:20px;""> Before you are done, we would like you to answer some basic demographic questions. </p>
    <p style=""font-size:20px;""> Note that your answers to these questions will not affect your compensation/credit. </p>
    <p style=""font-size:20px;""> Click the button below to continue.</p>
    ","0","demo","39567","html-button-response","85","467327","0.0-6.0","65","1","2022-11-29 22:05:57","2df368f4e41f066fd1c82c297b4a1108","83.54.40.157","Mozilla/5.0 (Windows NT 10.0; Win64; x64) AppleWebKit/537.36 (KHTML, like Gecko) Chrome/107.0.0.0 Safari/537.36","WebKit","Chrome","107.0.0.0","Windows","10.0","","","","",""
"22727","","{""Age"":""21"",""Gender"":""Male"",""Education"":""18""}","demo","39567","survey-text","86","490062","0.0-7.0-0.0","65","1","2022-11-29 22:05:57","2df368f4e41f066fd1c82c297b4a1108","83.54.40.157","Mozilla/5.0 (Windows NT 10.0; Win64; x64) AppleWebKit/537.36 (KHTML, like Gecko) Chrome/107.0.0.0 Safari/537.36","WebKit","Chrome","107.0.0.0","Windows","10.0","","","","",""
"7609","","{""Race"":[""White/Caucasian""]}","demo","39567","survey-multi-select","87","497691","0.0-7.0-1.0","65","1","2022-11-29 22:05:57","2df368f4e41f066fd1c82c297b4a1108","83.54.40.157","Mozilla/5.0 (Windows NT 10.0; Win64; x64) AppleWebKit/537.36 (KHTML, like Gecko) Chrome/107.0.0.0 Safari/537.36","WebKit","Chrome","107.0.0.0","Windows","10.0","[0]","","","",""
"11241","","{""Latino"":""Yes"",""Alert"":""Evening""}","demo","39567","survey-multi-choice","88","508954","0.0-7.0-2.0","65","1","2022-11-29 22:05:57","2df368f4e41f066fd1c82c297b4a1108","83.54.40.157","Mozilla/5.0 (Windows NT 10.0; Win64; x64) AppleWebKit/537.36 (KHTML, like Gecko) Chrome/107.0.0.0 Safari/537.36","WebKit","Chrome","107.0.0.0","Windows","10.0","[0,1]","","","",""
"2822","","{""Q0"":""""}","demo","39567","survey-text","89","511802","0.0-7.0-3.0","65","1","2022-11-29 22:05:57","2df368f4e41f066fd1c82c297b4a1108","83.54.40.157","Mozilla/5.0 (Windows NT 10.0; Win64; x64) AppleWebKit/537.36 (KHTML, like Gecko) Chrome/107.0.0.0 Safari/537.36","WebKit","Chrome","107.0.0.0","Windows","10.0","","","","",""
"10892","<p>Thank you for participating! </p><strong>Your completion code is: CXEJB7NH. Please copy-paste this code and submit it on Prolific.</strong><p>Click <a href=""https://drive.google.com/file/d/1c70cdHFlc0AaR6RujLWLJwWkv1RbHQJY/view?usp=sharing"" target=""_blank"" rel=""noopener noreferrer"">here</a> to access the debriefing form and know more about our research. <p> Please click the button below to finish the experiment and save your data.</p> <p> IMPORTANT: Please <strong>do not leave this page </strong> without clicking the button below.</p> <p> You may close the tab/window after you click the button below.","0","","","html-button-response","90","522714","0.0-8.0","65","1","2022-11-29 22:05:57","2df368f4e41f066fd1c82c297b4a1108","83.54.40.157","Mozilla/5.0 (Windows NT 10.0; Win64; x64) AppleWebKit/537.36 (KHTML, like Gecko) Chrome/107.0.0.0 Safari/537.36","WebKit","Chrome","107.0.0.0","Windows","10.0","","","","",""
