"rt","stimulus","response","typeoftrial","subject","trial_type","trial_index","time_elapsed","internal_node_id","run_id","condition","recorded_at","source_code_version","ip","user_agent","device","browser","browser_version","platform","platform_version","question_order","practice_rating","sentence_num","rating","Experiment"
"69569","
        <p style=""font-size:20px;""> Welcome! Thank you for your interest in our study. </p>
        <p style=""font-size:20px;""> This study is being conducted by researchers at Bowdoin College.</p>
        <p style=""font-size:20px;""> In this experiment, you will be asked to rate the accuracy of English and Spanish translations.</p>
        <p style=""font-size:20px;""> The entire experiment should not last more than 20 minutes. You will be paid $3 USD for your participation. </p>
        <p style=""font-size:20px;""> Please click <a href = ""https://drive.google.com/file/d/1L92a02eEKCpaAEipmqDcBCDR7rsarqFE/view?usp=sharing"" target = ""_blank"">here</a> to read the full consent form. </p>
        <p style=""font-size:20px;""> If you agree to participate, please click the button below to continue to experiment instructions.</p>
        ","0","consent","21883","html-button-response","0","69571","0.0-0.0","11","1","2022-11-29 21:24:41","2df368f4e41f066fd1c82c297b4a1108","189.153.47.131","Mozilla/5.0 (Macintosh; Intel Mac OS X 10_15_7) AppleWebKit/537.36 (KHTML, like Gecko) Chrome/107.0.0.0 Safari/537.36","Macintosh","Chrome","107.0.0.0","OS X","10_15_7","","","","",""
"5246","","{""ID"":""6147ab403dc5b011c6c71a86""}","ID","21883","survey-text","1","74823","0.0-1.0","11","1","2022-11-29 21:24:41","2df368f4e41f066fd1c82c297b4a1108","189.153.47.131","Mozilla/5.0 (Macintosh; Intel Mac OS X 10_15_7) AppleWebKit/537.36 (KHTML, like Gecko) Chrome/107.0.0.0 Safari/537.36","Macintosh","Chrome","107.0.0.0","OS X","10_15_7","","","","",""
"24752","
        <p style=""font-size:20px;""> You are about to begin the practice test. </p>
        <p style=""font-size:20px;""> On each trial, you will see a sentence in English and its corresponding Spanish translation. </p>
        <p style=""font-size:20px;""> You will rate the accuracy of the translation on a scale from ""Not at all accurate"" to ""Very accurate."" </p>
        <p style=""font-size:20px;""> If you rate the translation as ""Somewhat innaccurate"" or ""Not at all accurate,"" you will be asked to provide your own translation or a reason why the translation is inaccurate. </p>
        <p style=""font-size:20px;""> Click the button below to continue to the practice session.</p>","0","instructions","21883","html-button-response","2","99575","0.0-2.0","11","1","2022-11-29 21:24:41","2df368f4e41f066fd1c82c297b4a1108","189.153.47.131","Mozilla/5.0 (Macintosh; Intel Mac OS X 10_15_7) AppleWebKit/537.36 (KHTML, like Gecko) Chrome/107.0.0.0 Safari/537.36","Macintosh","Chrome","107.0.0.0","OS X","10_15_7","","","","",""
"47655","You see how a duck is playing with a pumpkin <br> T&uacute ves como un pato est&aacute jugando con una calabaza","{""Q0"":3}","practice","21883","survey-likert","3","147232","0.0-3.0-0.0","11","1","2022-11-29 21:24:41","2df368f4e41f066fd1c82c297b4a1108","189.153.47.131","Mozilla/5.0 (Macintosh; Intel Mac OS X 10_15_7) AppleWebKit/537.36 (KHTML, like Gecko) Chrome/107.0.0.0 Safari/537.36","Macintosh","Chrome","107.0.0.0","OS X","10_15_7","[0]","3","","",""
"8389","You see how an artist is running <br> T&uacute ves como un artista est&aacute corriendo","{""Q0"":3}","practice","21883","survey-likert","4","155630","0.0-3.0-0.1","11","1","2022-11-29 21:24:41","2df368f4e41f066fd1c82c297b4a1108","189.153.47.131","Mozilla/5.0 (Macintosh; Intel Mac OS X 10_15_7) AppleWebKit/537.36 (KHTML, like Gecko) Chrome/107.0.0.0 Safari/537.36","Macintosh","Chrome","107.0.0.0","OS X","10_15_7","[0]","3","","",""
"34545","You drop a rock on a phone <br> T&uacute tiras una piedra a un tel&eacutefono","{""Q0"":4}","practice","21883","survey-likert","5","190179","0.0-3.0-0.2","11","1","2022-11-29 21:24:41","2df368f4e41f066fd1c82c297b4a1108","189.153.47.131","Mozilla/5.0 (Macintosh; Intel Mac OS X 10_15_7) AppleWebKit/537.36 (KHTML, like Gecko) Chrome/107.0.0.0 Safari/537.36","Macintosh","Chrome","107.0.0.0","OS X","10_15_7","[0]","4","","",""
"91800","You see how a teacher is drawing a picture <br> T&uacute ves como un maestro pinta una foto","{""Q0"":3}","practice","21883","survey-likert","6","281982","0.0-3.0-0.3","11","1","2022-11-29 21:24:41","2df368f4e41f066fd1c82c297b4a1108","189.153.47.131","Mozilla/5.0 (Macintosh; Intel Mac OS X 10_15_7) AppleWebKit/537.36 (KHTML, like Gecko) Chrome/107.0.0.0 Safari/537.36","Macintosh","Chrome","107.0.0.0","OS X","10_15_7","[0]","3","","",""
"7508","You see how a tiger is playing with a goose <br> T&uacute ves como un le&oacuten come una pizza","{""Q0"":0}","practice","21883","survey-likert","7","289495","0.0-3.0-0.4","11","1","2022-11-29 21:24:41","2df368f4e41f066fd1c82c297b4a1108","189.153.47.131","Mozilla/5.0 (Macintosh; Intel Mac OS X 10_15_7) AppleWebKit/537.36 (KHTML, like Gecko) Chrome/107.0.0.0 Safari/537.36","Macintosh","Chrome","107.0.0.0","OS X","10_15_7","[0]","0","","",""
"80382","You see how a tiger is playing with a goose <br> T&uacute ves como un le&oacuten come una pizza","{""Q0"":""the translarion mentions a word that is not in the original sentence""}","practice_low_rate","21883","survey-text","8","369880","0.0-3.0-1.4-0.4","11","1","2022-11-29 21:24:41","2df368f4e41f066fd1c82c297b4a1108","189.153.47.131","Mozilla/5.0 (Macintosh; Intel Mac OS X 10_15_7) AppleWebKit/537.36 (KHTML, like Gecko) Chrome/107.0.0.0 Safari/537.36","Macintosh","Chrome","107.0.0.0","OS X","10_15_7","","","5","",""
"16048","You drop a bowling ball on a mircrowave <br> T&uacute tiras una bola de boliche a un horno","{""Q0"":1}","practice","21883","survey-likert","9","385931","0.0-3.0-0.5","11","1","2022-11-29 21:24:41","2df368f4e41f066fd1c82c297b4a1108","189.153.47.131","Mozilla/5.0 (Macintosh; Intel Mac OS X 10_15_7) AppleWebKit/537.36 (KHTML, like Gecko) Chrome/107.0.0.0 Safari/537.36","Macintosh","Chrome","107.0.0.0","OS X","10_15_7","[0]","1","","",""
"6636","You drop a bowling ball on a mircrowave <br> T&uacute tiras una bola de boliche a un horno","{""Q0"":""Tú tiras una bola de boliche a un horno de microondas""}","practice_low_rate","21883","survey-text","10","392574","0.0-3.0-1.5-0.5","11","1","2022-11-29 21:24:41","2df368f4e41f066fd1c82c297b4a1108","189.153.47.131","Mozilla/5.0 (Macintosh; Intel Mac OS X 10_15_7) AppleWebKit/537.36 (KHTML, like Gecko) Chrome/107.0.0.0 Safari/537.36","Macintosh","Chrome","107.0.0.0","OS X","10_15_7","","","6","",""
"4450","<p style=""font-size:20px;"">You have now completed the practice session! </p>
        <p style=""font-size:20px;"">You will now move on to the main experiment. </p>
        <p style=""font-size:20px;"">Please click the button below to continue. </p>","0","movetoexp","21883","html-button-response","11","397026","0.0-4.0","11","1","2022-11-29 21:24:41","2df368f4e41f066fd1c82c297b4a1108","189.153.47.131","Mozilla/5.0 (Macintosh; Intel Mac OS X 10_15_7) AppleWebKit/537.36 (KHTML, like Gecko) Chrome/107.0.0.0 Safari/537.36","Macintosh","Chrome","107.0.0.0","OS X","10_15_7","","","","",""
"9724","You see how a pilot is reading a book <br> T&uacute ves como un piloto est&aacute leyendo un libro","{""Q0"":4}","trial","21883","survey-likert","12","406752","0.0-5.0-0.0","11","1","2022-11-29 21:24:41","2df368f4e41f066fd1c82c297b4a1108","189.153.47.131","Mozilla/5.0 (Macintosh; Intel Mac OS X 10_15_7) AppleWebKit/537.36 (KHTML, like Gecko) Chrome/107.0.0.0 Safari/537.36","Macintosh","Chrome","107.0.0.0","OS X","10_15_7","[0]","","61","4",""
"12983","You see how a mouse is eating cheese <br> T&uacute ves como el rat&oacuten est&aacute comiendo queso","{""Q0"":4}","trial","21883","survey-likert","13","419740","0.0-5.0-0.1","11","1","2022-11-29 21:24:41","2df368f4e41f066fd1c82c297b4a1108","189.153.47.131","Mozilla/5.0 (Macintosh; Intel Mac OS X 10_15_7) AppleWebKit/537.36 (KHTML, like Gecko) Chrome/107.0.0.0 Safari/537.36","Macintosh","Chrome","107.0.0.0","OS X","10_15_7","[0]","","56","4",""
"4581","You see how a panda is resting on a tree <br> T&uacute ves como un panda est&aacute descansando en un &aacuterbol","{""Q0"":4}","trial","21883","survey-likert","14","424329","0.0-5.0-0.2","11","1","2022-11-29 21:24:41","2df368f4e41f066fd1c82c297b4a1108","189.153.47.131","Mozilla/5.0 (Macintosh; Intel Mac OS X 10_15_7) AppleWebKit/537.36 (KHTML, like Gecko) Chrome/107.0.0.0 Safari/537.36","Macintosh","Chrome","107.0.0.0","OS X","10_15_7","[0]","","57","4",""
"7546","You drop a keyboard on the bed <br> T&uacute tiras un teclado a la cama","{""Q0"":3}","trial","21883","survey-likert","15","431880","0.0-5.0-0.3","11","1","2022-11-29 21:24:41","2df368f4e41f066fd1c82c297b4a1108","189.153.47.131","Mozilla/5.0 (Macintosh; Intel Mac OS X 10_15_7) AppleWebKit/537.36 (KHTML, like Gecko) Chrome/107.0.0.0 Safari/537.36","Macintosh","Chrome","107.0.0.0","OS X","10_15_7","[0]","","36","3",""
"6779","You see how a police officer is talking on the phone <br> T&uacute ves como un polic&iacutea est&aacute hablando por el tel&eacutefono","{""Q0"":3}","trial","21883","survey-likert","16","438664","0.0-5.0-0.4","11","1","2022-11-29 21:24:41","2df368f4e41f066fd1c82c297b4a1108","189.153.47.131","Mozilla/5.0 (Macintosh; Intel Mac OS X 10_15_7) AppleWebKit/537.36 (KHTML, like Gecko) Chrome/107.0.0.0 Safari/537.36","Macintosh","Chrome","107.0.0.0","OS X","10_15_7","[0]","","62","3",""
"10421","You drop a ring on the newspaper <br> T&uacute tiras un anillo al peri&oacutedico","{""Q0"":4}","trial","21883","survey-likert","17","449090","0.0-5.0-0.5","11","1","2022-11-29 21:24:41","2df368f4e41f066fd1c82c297b4a1108","189.153.47.131","Mozilla/5.0 (Macintosh; Intel Mac OS X 10_15_7) AppleWebKit/537.36 (KHTML, like Gecko) Chrome/107.0.0.0 Safari/537.36","Macintosh","Chrome","107.0.0.0","OS X","10_15_7","[0]","","41","4",""
"8157","You drop a bowling ball on a tomato <br> T&uacute tiras una bola de boliche a un tomate","{""Q0"":3}","trial","21883","survey-likert","18","457252","0.0-5.0-0.6","11","1","2022-11-29 21:24:41","2df368f4e41f066fd1c82c297b4a1108","189.153.47.131","Mozilla/5.0 (Macintosh; Intel Mac OS X 10_15_7) AppleWebKit/537.36 (KHTML, like Gecko) Chrome/107.0.0.0 Safari/537.36","Macintosh","Chrome","107.0.0.0","OS X","10_15_7","[0]","","23","3",""
"5820","You see how an astronaut is putting on a space suit <br> T&uacute ves como un astronauta se est&aacute poniendo su traje espacial","{""Q0"":4}","trial","21883","survey-likert","19","463080","0.0-5.0-0.7","11","1","2022-11-29 21:24:41","2df368f4e41f066fd1c82c297b4a1108","189.153.47.131","Mozilla/5.0 (Macintosh; Intel Mac OS X 10_15_7) AppleWebKit/537.36 (KHTML, like Gecko) Chrome/107.0.0.0 Safari/537.36","Macintosh","Chrome","107.0.0.0","OS X","10_15_7","[0]","","33","4",""
"6094","You see how a kitten is playing in the sandbox <br> T&uacute ves como un gatito est&aacute jugando en la caja de arena","{""Q0"":4}","trial","21883","survey-likert","20","469179","0.0-5.0-0.8","11","1","2022-11-29 21:24:41","2df368f4e41f066fd1c82c297b4a1108","189.153.47.131","Mozilla/5.0 (Macintosh; Intel Mac OS X 10_15_7) AppleWebKit/537.36 (KHTML, like Gecko) Chrome/107.0.0.0 Safari/537.36","Macintosh","Chrome","107.0.0.0","OS X","10_15_7","[0]","","52","4",""
"11341","You drop a bowling ball on a piece of sushi <br> T&uacute tiras una bola de boliche a un pedazo de sushi","{""Q0"":4}","trial","21883","survey-likert","21","480524","0.0-5.0-0.9","11","1","2022-11-29 21:24:41","2df368f4e41f066fd1c82c297b4a1108","189.153.47.131","Mozilla/5.0 (Macintosh; Intel Mac OS X 10_15_7) AppleWebKit/537.36 (KHTML, like Gecko) Chrome/107.0.0.0 Safari/537.36","Macintosh","Chrome","107.0.0.0","OS X","10_15_7","[0]","","21","4",""
"5753","You drop a bowling ball on a tile <br> T&uacute tiras una bola de boliche a una baldosa","{""Q0"":4}","trial","21883","survey-likert","22","486281","0.0-5.0-0.10","11","1","2022-11-29 21:24:41","2df368f4e41f066fd1c82c297b4a1108","189.153.47.131","Mozilla/5.0 (Macintosh; Intel Mac OS X 10_15_7) AppleWebKit/537.36 (KHTML, like Gecko) Chrome/107.0.0.0 Safari/537.36","Macintosh","Chrome","107.0.0.0","OS X","10_15_7","[0]","","22","4",""
"5697","You see how a boy is peeling a banana <br> T&uacute ves como un ni&ntildeo est&aacute pelando una banana","{""Q0"":4}","trial","21883","survey-likert","23","491984","0.0-5.0-0.11","11","1","2022-11-29 21:24:41","2df368f4e41f066fd1c82c297b4a1108","189.153.47.131","Mozilla/5.0 (Macintosh; Intel Mac OS X 10_15_7) AppleWebKit/537.36 (KHTML, like Gecko) Chrome/107.0.0.0 Safari/537.36","Macintosh","Chrome","107.0.0.0","OS X","10_15_7","[0]","","30","4",""
"5119","You see how a photographer is taking a photo of a lion <br> T&uacute ves como un fot&oacutegrafo est&aacute tomando una foto de un le&oacuten","{""Q0"":4}","trial","21883","survey-likert","24","497108","0.0-5.0-0.12","11","1","2022-11-29 21:24:41","2df368f4e41f066fd1c82c297b4a1108","189.153.47.131","Mozilla/5.0 (Macintosh; Intel Mac OS X 10_15_7) AppleWebKit/537.36 (KHTML, like Gecko) Chrome/107.0.0.0 Safari/537.36","Macintosh","Chrome","107.0.0.0","OS X","10_15_7","[0]","","72","4",""
"23587","You see how a nurse is taking a syringe <br> T&uacute ves como una enfermera est&aacute agarrando una jeringuilla","{""Q0"":1}","trial","21883","survey-likert","25","520699","0.0-5.0-0.13","11","1","2022-11-29 21:24:41","2df368f4e41f066fd1c82c297b4a1108","189.153.47.131","Mozilla/5.0 (Macintosh; Intel Mac OS X 10_15_7) AppleWebKit/537.36 (KHTML, like Gecko) Chrome/107.0.0.0 Safari/537.36","Macintosh","Chrome","107.0.0.0","OS X","10_15_7","[0]","","48","1",""
"4792","You see how a nurse is taking a syringe <br> T&uacute ves como una enfermera est&aacute agarrando una jeringuilla","{""Q0"":""Tú ves como una enfermera está agarrando una jeringa""}","low_rate","21883","survey-text","26","525499","0.0-5.0-1.13-0.13","11","1","2022-11-29 21:24:41","2df368f4e41f066fd1c82c297b4a1108","189.153.47.131","Mozilla/5.0 (Macintosh; Intel Mac OS X 10_15_7) AppleWebKit/537.36 (KHTML, like Gecko) Chrome/107.0.0.0 Safari/537.36","Macintosh","Chrome","107.0.0.0","OS X","10_15_7","","","48","",""
"6994","You drop a bowling ball on an egg flan <br> T&uacute tiras una bola de boliche a un flan","{""Q0"":4}","trial","21883","survey-likert","27","532495","0.0-5.0-0.14","11","1","2022-11-29 21:24:41","2df368f4e41f066fd1c82c297b4a1108","189.153.47.131","Mozilla/5.0 (Macintosh; Intel Mac OS X 10_15_7) AppleWebKit/537.36 (KHTML, like Gecko) Chrome/107.0.0.0 Safari/537.36","Macintosh","Chrome","107.0.0.0","OS X","10_15_7","[0]","","7","4",""
"20084","You drop a bowling ball on a light bulb <br> T&uacute tiras una bola de boliche a una bombilla","{""Q0"":3}","trial","21883","survey-likert","28","552585","0.0-5.0-0.15","11","1","2022-11-29 21:24:41","2df368f4e41f066fd1c82c297b4a1108","189.153.47.131","Mozilla/5.0 (Macintosh; Intel Mac OS X 10_15_7) AppleWebKit/537.36 (KHTML, like Gecko) Chrome/107.0.0.0 Safari/537.36","Macintosh","Chrome","107.0.0.0","OS X","10_15_7","[0]","","14","3",""
"7397","You see how a cat is drinking water from a bowl <br> T&uacute ves como un gato est&aacute bebiendo agua de un cuenco","{""Q0"":3}","trial","21883","survey-likert","29","559988","0.0-5.0-0.16","11","1","2022-11-29 21:24:41","2df368f4e41f066fd1c82c297b4a1108","189.153.47.131","Mozilla/5.0 (Macintosh; Intel Mac OS X 10_15_7) AppleWebKit/537.36 (KHTML, like Gecko) Chrome/107.0.0.0 Safari/537.36","Macintosh","Chrome","107.0.0.0","OS X","10_15_7","[0]","","28","3",""
"13120","You drop a bowling ball on a porcelain figure <br> T&uacute tiras una bola de boliche a una figura de porcelana","{""Q0"":4}","trial","21883","survey-likert","30","573113","0.0-5.0-0.17","11","1","2022-11-29 21:24:41","2df368f4e41f066fd1c82c297b4a1108","189.153.47.131","Mozilla/5.0 (Macintosh; Intel Mac OS X 10_15_7) AppleWebKit/537.36 (KHTML, like Gecko) Chrome/107.0.0.0 Safari/537.36","Macintosh","Chrome","107.0.0.0","OS X","10_15_7","[0]","","1","4",""
"18379","You drop a needle on the mouse pad <br> T&uacute tiras una aguja a la alfombrilla para el rat&oacuten","{""Q0"":3}","trial","21883","survey-likert","31","591498","0.0-5.0-0.18","11","1","2022-11-29 21:24:41","2df368f4e41f066fd1c82c297b4a1108","189.153.47.131","Mozilla/5.0 (Macintosh; Intel Mac OS X 10_15_7) AppleWebKit/537.36 (KHTML, like Gecko) Chrome/107.0.0.0 Safari/537.36","Macintosh","Chrome","107.0.0.0","OS X","10_15_7","[0]","","42","3",""
"7515","You drop a bowling ball on a blackberry <br> T&uacute tiras una bola de boliche a una mora","{""Q0"":4}","trial","21883","survey-likert","32","599019","0.0-5.0-0.19","11","1","2022-11-29 21:24:41","2df368f4e41f066fd1c82c297b4a1108","189.153.47.131","Mozilla/5.0 (Macintosh; Intel Mac OS X 10_15_7) AppleWebKit/537.36 (KHTML, like Gecko) Chrome/107.0.0.0 Safari/537.36","Macintosh","Chrome","107.0.0.0","OS X","10_15_7","[0]","","8","4",""
"10443","You see how an old man is hammering a nail <br> T&uacute ves como un hombre anciano est&aacute martillando un clavo","{""Q0"":4}","trial","21883","survey-likert","33","609468","0.0-5.0-0.20","11","1","2022-11-29 21:24:41","2df368f4e41f066fd1c82c297b4a1108","189.153.47.131","Mozilla/5.0 (Macintosh; Intel Mac OS X 10_15_7) AppleWebKit/537.36 (KHTML, like Gecko) Chrome/107.0.0.0 Safari/537.36","Macintosh","Chrome","107.0.0.0","OS X","10_15_7","[0]","","29","4",""
"5553","You drop a cabbage on the table <br> T&uacute tiras una col a la mesa","{""Q0"":4}","trial","21883","survey-likert","34","615027","0.0-5.0-0.21","11","1","2022-11-29 21:24:41","2df368f4e41f066fd1c82c297b4a1108","189.153.47.131","Mozilla/5.0 (Macintosh; Intel Mac OS X 10_15_7) AppleWebKit/537.36 (KHTML, like Gecko) Chrome/107.0.0.0 Safari/537.36","Macintosh","Chrome","107.0.0.0","OS X","10_15_7","[0]","","35","4",""
"13588","You drop a bowling ball on an empty can of beer <br> T&uacute tiras una bola de boliche a una lata de cerveza vac&iacutea","{""Q0"":4}","trial","21883","survey-likert","35","628621","0.0-5.0-0.22","11","1","2022-11-29 21:24:41","2df368f4e41f066fd1c82c297b4a1108","189.153.47.131","Mozilla/5.0 (Macintosh; Intel Mac OS X 10_15_7) AppleWebKit/537.36 (KHTML, like Gecko) Chrome/107.0.0.0 Safari/537.36","Macintosh","Chrome","107.0.0.0","OS X","10_15_7","[0]","","3","4",""
"4516","You drop a bowling ball on an iPhone <br> T&uacute tiras una bola de boliche a un iPhone","{""Q0"":4}","trial","21883","survey-likert","36","633143","0.0-5.0-0.23","11","1","2022-11-29 21:24:41","2df368f4e41f066fd1c82c297b4a1108","189.153.47.131","Mozilla/5.0 (Macintosh; Intel Mac OS X 10_15_7) AppleWebKit/537.36 (KHTML, like Gecko) Chrome/107.0.0.0 Safari/537.36","Macintosh","Chrome","107.0.0.0","OS X","10_15_7","[0]","","13","4",""
"12950","You see how a hairdresser is taking scissors <br> T&uacute ves como una peluquera est&aacute agarrando las tijeras","{""Q0"":4}","trial","21883","survey-likert","37","646099","0.0-5.0-0.24","11","1","2022-11-29 21:24:41","2df368f4e41f066fd1c82c297b4a1108","189.153.47.131","Mozilla/5.0 (Macintosh; Intel Mac OS X 10_15_7) AppleWebKit/537.36 (KHTML, like Gecko) Chrome/107.0.0.0 Safari/537.36","Macintosh","Chrome","107.0.0.0","OS X","10_15_7","[0]","","60","4",""
"18491","You see how a president is writing in the notebook <br> T&uacute ves como un presidente est&aacute escribiendo en la libreta","{""Q0"":4}","trial","21883","survey-likert","38","664597","0.0-5.0-0.25","11","1","2022-11-29 21:24:41","2df368f4e41f066fd1c82c297b4a1108","189.153.47.131","Mozilla/5.0 (Macintosh; Intel Mac OS X 10_15_7) AppleWebKit/537.36 (KHTML, like Gecko) Chrome/107.0.0.0 Safari/537.36","Macintosh","Chrome","107.0.0.0","OS X","10_15_7","[0]","","63","4",""
"5694","You drop a bowling ball on a strawberry <br> T&uacute tiras una bola de boliche a una fresa","{""Q0"":4}","trial","21883","survey-likert","39","670300","0.0-5.0-0.26","11","1","2022-11-29 21:24:41","2df368f4e41f066fd1c82c297b4a1108","189.153.47.131","Mozilla/5.0 (Macintosh; Intel Mac OS X 10_15_7) AppleWebKit/537.36 (KHTML, like Gecko) Chrome/107.0.0.0 Safari/537.36","Macintosh","Chrome","107.0.0.0","OS X","10_15_7","[0]","","20","4",""
"5332","You see how a man is boiling potatoes <br> T&uacute ves a un hombre est&aacute hirviendo papas","{""Q0"":4}","trial","21883","survey-likert","40","675639","0.0-5.0-0.27","11","1","2022-11-29 21:24:41","2df368f4e41f066fd1c82c297b4a1108","189.153.47.131","Mozilla/5.0 (Macintosh; Intel Mac OS X 10_15_7) AppleWebKit/537.36 (KHTML, like Gecko) Chrome/107.0.0.0 Safari/537.36","Macintosh","Chrome","107.0.0.0","OS X","10_15_7","[0]","","46","4",""
"6047","You see how an actress is taking a microphone <br> T&uacute ves como una actriz est&aacute agarrando el micr&oacutefono","{""Q0"":4}","trial","21883","survey-likert","41","681692","0.0-5.0-0.28","11","1","2022-11-29 21:24:41","2df368f4e41f066fd1c82c297b4a1108","189.153.47.131","Mozilla/5.0 (Macintosh; Intel Mac OS X 10_15_7) AppleWebKit/537.36 (KHTML, like Gecko) Chrome/107.0.0.0 Safari/537.36","Macintosh","Chrome","107.0.0.0","OS X","10_15_7","[0]","","51","4",""
"8140","You see how an owl is sitting on the branch <br> T&uacute ves como un b&uacuteho est&aacute reposando en una rama","{""Q0"":4}","trial","21883","survey-likert","42","689837","0.0-5.0-0.29","11","1","2022-11-29 21:24:41","2df368f4e41f066fd1c82c297b4a1108","189.153.47.131","Mozilla/5.0 (Macintosh; Intel Mac OS X 10_15_7) AppleWebKit/537.36 (KHTML, like Gecko) Chrome/107.0.0.0 Safari/537.36","Macintosh","Chrome","107.0.0.0","OS X","10_15_7","[0]","","69","4",""
"31689","You drop a cushion on the magazine <br> T&uacute tiras un coj&iacuten a la revista","{""Q0"":4}","trial","21883","survey-likert","43","721531","0.0-5.0-0.30","11","1","2022-11-29 21:24:41","2df368f4e41f066fd1c82c297b4a1108","189.153.47.131","Mozilla/5.0 (Macintosh; Intel Mac OS X 10_15_7) AppleWebKit/537.36 (KHTML, like Gecko) Chrome/107.0.0.0 Safari/537.36","Macintosh","Chrome","107.0.0.0","OS X","10_15_7","[0]","","38","4",""
"9203","You see how a butterfly is sitting on a flower <br> T&uacute ves como una mariposa est&aacute reposando en una flor","{""Q0"":4}","trial","21883","survey-likert","44","730742","0.0-5.0-0.31","11","1","2022-11-29 21:24:41","2df368f4e41f066fd1c82c297b4a1108","189.153.47.131","Mozilla/5.0 (Macintosh; Intel Mac OS X 10_15_7) AppleWebKit/537.36 (KHTML, like Gecko) Chrome/107.0.0.0 Safari/537.36","Macintosh","Chrome","107.0.0.0","OS X","10_15_7","[0]","","59","4",""
"19467","You see how a woman is paying with a debit card <br> T&uacute ves como una mujer est&aacute pagando con una tarjeta de d&eacutebito","{""Q0"":4}","trial","21883","survey-likert","45","750215","0.0-5.0-0.32","11","1","2022-11-29 21:24:41","2df368f4e41f066fd1c82c297b4a1108","189.153.47.131","Mozilla/5.0 (Macintosh; Intel Mac OS X 10_15_7) AppleWebKit/537.36 (KHTML, like Gecko) Chrome/107.0.0.0 Safari/537.36","Macintosh","Chrome","107.0.0.0","OS X","10_15_7","[0]","","64","4",""
"4443","You see how a dentist is drinking a can of cola <br> T&uacute ves como un dentista est&aacute bebiendo una lata de cola","{""Q0"":4}","trial","21883","survey-likert","46","754666","0.0-5.0-0.33","11","1","2022-11-29 21:24:41","2df368f4e41f066fd1c82c297b4a1108","189.153.47.131","Mozilla/5.0 (Macintosh; Intel Mac OS X 10_15_7) AppleWebKit/537.36 (KHTML, like Gecko) Chrome/107.0.0.0 Safari/537.36","Macintosh","Chrome","107.0.0.0","OS X","10_15_7","[0]","","47","4",""
"8124","You drop a bowling ball on a mirror <br> T&uacute tiras una bola de boliche a un espejo","{""Q0"":4}","trial","21883","survey-likert","47","762797","0.0-5.0-0.34","11","1","2022-11-29 21:24:41","2df368f4e41f066fd1c82c297b4a1108","189.153.47.131","Mozilla/5.0 (Macintosh; Intel Mac OS X 10_15_7) AppleWebKit/537.36 (KHTML, like Gecko) Chrome/107.0.0.0 Safari/537.36","Macintosh","Chrome","107.0.0.0","OS X","10_15_7","[0]","","15","4",""
"7775","You drop a bowling ball on a donut <br> T&uacute tiras una bola de boliche a una rosquilla","{""Q0"":3}","trial","21883","survey-likert","48","770580","0.0-5.0-0.35","11","1","2022-11-29 21:24:41","2df368f4e41f066fd1c82c297b4a1108","189.153.47.131","Mozilla/5.0 (Macintosh; Intel Mac OS X 10_15_7) AppleWebKit/537.36 (KHTML, like Gecko) Chrome/107.0.0.0 Safari/537.36","Macintosh","Chrome","107.0.0.0","OS X","10_15_7","[0]","","17","3",""
"4835","You drop a bowling ball on a ceramic plate <br> T&uacute tiras una bola de boliche a un plato de cer&aacutemica","{""Q0"":4}","trial","21883","survey-likert","49","775422","0.0-5.0-0.36","11","1","2022-11-29 21:24:41","2df368f4e41f066fd1c82c297b4a1108","189.153.47.131","Mozilla/5.0 (Macintosh; Intel Mac OS X 10_15_7) AppleWebKit/537.36 (KHTML, like Gecko) Chrome/107.0.0.0 Safari/537.36","Macintosh","Chrome","107.0.0.0","OS X","10_15_7","[0]","","19","4",""
"9841","You see how a zebra is playing with a horse <br> T&uacute ves como una cebra est&aacute jugando con un caballo","{""Q0"":4}","trial","21883","survey-likert","50","785269","0.0-5.0-0.37","11","1","2022-11-29 21:24:41","2df368f4e41f066fd1c82c297b4a1108","189.153.47.131","Mozilla/5.0 (Macintosh; Intel Mac OS X 10_15_7) AppleWebKit/537.36 (KHTML, like Gecko) Chrome/107.0.0.0 Safari/537.36","Macintosh","Chrome","107.0.0.0","OS X","10_15_7","[0]","","66","4",""
"4612","You see how a doctor is taking a stethoscope <br> T&uacute ves como un doctor est&aacute agarrando un estetoscopio","{""Q0"":4}","trial","21883","survey-likert","51","789889","0.0-5.0-0.38","11","1","2022-11-29 21:24:41","2df368f4e41f066fd1c82c297b4a1108","189.153.47.131","Mozilla/5.0 (Macintosh; Intel Mac OS X 10_15_7) AppleWebKit/537.36 (KHTML, like Gecko) Chrome/107.0.0.0 Safari/537.36","Macintosh","Chrome","107.0.0.0","OS X","10_15_7","[0]","","49","4",""
"19315","You see how a postman is driving a car <br> T&uacute ves como un cartero est&aacute conduciendo un coche","{""Q0"":4}","trial","21883","survey-likert","52","809211","0.0-5.0-0.39","11","1","2022-11-29 21:24:41","2df368f4e41f066fd1c82c297b4a1108","189.153.47.131","Mozilla/5.0 (Macintosh; Intel Mac OS X 10_15_7) AppleWebKit/537.36 (KHTML, like Gecko) Chrome/107.0.0.0 Safari/537.36","Macintosh","Chrome","107.0.0.0","OS X","10_15_7","[0]","","32","4",""
"12615","You drop a bowling ball on a piece of cake <br> T&uacute tiras una bola de boliche a un trozo de pastel","{""Q0"":4}","trial","21883","survey-likert","53","821833","0.0-5.0-0.40","11","1","2022-11-29 21:24:41","2df368f4e41f066fd1c82c297b4a1108","189.153.47.131","Mozilla/5.0 (Macintosh; Intel Mac OS X 10_15_7) AppleWebKit/537.36 (KHTML, like Gecko) Chrome/107.0.0.0 Safari/537.36","Macintosh","Chrome","107.0.0.0","OS X","10_15_7","[0]","","2","4",""
"8340","You drop a bowling ball on a cracker <br> T&uacute tiras una bola de boliche a una galleta","{""Q0"":4}","trial","21883","survey-likert","54","830184","0.0-5.0-0.41","11","1","2022-11-29 21:24:41","2df368f4e41f066fd1c82c297b4a1108","189.153.47.131","Mozilla/5.0 (Macintosh; Intel Mac OS X 10_15_7) AppleWebKit/537.36 (KHTML, like Gecko) Chrome/107.0.0.0 Safari/537.36","Macintosh","Chrome","107.0.0.0","OS X","10_15_7","[0]","","4","4",""
"4134","You drop a bowling ball on an iPAD <br> T&uacute tiras una bola de boliche a un iPad","{""Q0"":4}","trial","21883","survey-likert","55","834324","0.0-5.0-0.42","11","1","2022-11-29 21:24:41","2df368f4e41f066fd1c82c297b4a1108","189.153.47.131","Mozilla/5.0 (Macintosh; Intel Mac OS X 10_15_7) AppleWebKit/537.36 (KHTML, like Gecko) Chrome/107.0.0.0 Safari/537.36","Macintosh","Chrome","107.0.0.0","OS X","10_15_7","[0]","","12","4",""
"3920","You see how a musician is playing a guitar <br> T&uacute ves como un m&uacutesico est&aacute tocando la guitarra","{""Q0"":4}","trial","21883","survey-likert","56","838251","0.0-5.0-0.43","11","1","2022-11-29 21:24:41","2df368f4e41f066fd1c82c297b4a1108","189.153.47.131","Mozilla/5.0 (Macintosh; Intel Mac OS X 10_15_7) AppleWebKit/537.36 (KHTML, like Gecko) Chrome/107.0.0.0 Safari/537.36","Macintosh","Chrome","107.0.0.0","OS X","10_15_7","[0]","","27","4",""
"3644","You see how a horse is chewing hay <br> T&uacute ves como un caballo est&aacute masticando el heno","{""Q0"":4}","trial","21883","survey-likert","57","841903","0.0-5.0-0.44","11","1","2022-11-29 21:24:41","2df368f4e41f066fd1c82c297b4a1108","189.153.47.131","Mozilla/5.0 (Macintosh; Intel Mac OS X 10_15_7) AppleWebKit/537.36 (KHTML, like Gecko) Chrome/107.0.0.0 Safari/537.36","Macintosh","Chrome","107.0.0.0","OS X","10_15_7","[0]","","55","4",""
"4694","You see how a parrot is eating an apple <br> T&uacute ves como un loro est&aacute comiendo una manzana","{""Q0"":4}","trial","21883","survey-likert","58","846605","0.0-5.0-0.45","11","1","2022-11-29 21:24:41","2df368f4e41f066fd1c82c297b4a1108","189.153.47.131","Mozilla/5.0 (Macintosh; Intel Mac OS X 10_15_7) AppleWebKit/537.36 (KHTML, like Gecko) Chrome/107.0.0.0 Safari/537.36","Macintosh","Chrome","107.0.0.0","OS X","10_15_7","[0]","","58","4",""
"4693","You drop a bowling ball on an egg <br> T&uacute tiras una bola de boliche a un huevo","{""Q0"":4}","trial","21883","survey-likert","59","851304","0.0-5.0-0.46","11","1","2022-11-29 21:24:41","2df368f4e41f066fd1c82c297b4a1108","189.153.47.131","Mozilla/5.0 (Macintosh; Intel Mac OS X 10_15_7) AppleWebKit/537.36 (KHTML, like Gecko) Chrome/107.0.0.0 Safari/537.36","Macintosh","Chrome","107.0.0.0","OS X","10_15_7","[0]","","6","4",""
"8738","You drop a bowling ball on a paper cup <br> T&uacute tiras una bola de boliche a un vaso de papel","{""Q0"":4}","trial","21883","survey-likert","60","860049","0.0-5.0-0.47","11","1","2022-11-29 21:24:41","2df368f4e41f066fd1c82c297b4a1108","189.153.47.131","Mozilla/5.0 (Macintosh; Intel Mac OS X 10_15_7) AppleWebKit/537.36 (KHTML, like Gecko) Chrome/107.0.0.0 Safari/537.36","Macintosh","Chrome","107.0.0.0","OS X","10_15_7","[0]","","24","4",""
"5226","You see how a puppy is playing with a ball <br> T&uacute ves como un cachorro est&aacute jugando con una pelota","{""Q0"":4}","trial","21883","survey-likert","61","865282","0.0-5.0-0.48","11","1","2022-11-29 21:24:41","2df368f4e41f066fd1c82c297b4a1108","189.153.47.131","Mozilla/5.0 (Macintosh; Intel Mac OS X 10_15_7) AppleWebKit/537.36 (KHTML, like Gecko) Chrome/107.0.0.0 Safari/537.36","Macintosh","Chrome","107.0.0.0","OS X","10_15_7","[0]","","34","4",""
"6386","You drop a fork on the plate <br> T&uacute tiras un tenedor al plato","{""Q0"":4}","trial","21883","survey-likert","62","871676","0.0-5.0-0.49","11","1","2022-11-29 21:24:41","2df368f4e41f066fd1c82c297b4a1108","189.153.47.131","Mozilla/5.0 (Macintosh; Intel Mac OS X 10_15_7) AppleWebKit/537.36 (KHTML, like Gecko) Chrome/107.0.0.0 Safari/537.36","Macintosh","Chrome","107.0.0.0","OS X","10_15_7","[0]","","26","4",""
"3876","You see how a cook is taking a knife <br> T&uacute ves como un cocinero est&aacute agarrando un cuchillo","{""Q0"":4}","trial","21883","survey-likert","63","875557","0.0-5.0-0.50","11","1","2022-11-29 21:24:41","2df368f4e41f066fd1c82c297b4a1108","189.153.47.131","Mozilla/5.0 (Macintosh; Intel Mac OS X 10_15_7) AppleWebKit/537.36 (KHTML, like Gecko) Chrome/107.0.0.0 Safari/537.36","Macintosh","Chrome","107.0.0.0","OS X","10_15_7","[0]","","71","4",""
"6646","You see how an elephant is eating a watermelon <br> T&uacute ves como un elefante est&aacute comiendo una sand&iacutea","{""Q0"":4}","trial","21883","survey-likert","64","882212","0.0-5.0-0.51","11","1","2022-11-29 21:24:41","2df368f4e41f066fd1c82c297b4a1108","189.153.47.131","Mozilla/5.0 (Macintosh; Intel Mac OS X 10_15_7) AppleWebKit/537.36 (KHTML, like Gecko) Chrome/107.0.0.0 Safari/537.36","Macintosh","Chrome","107.0.0.0","OS X","10_15_7","[0]","","31","4",""
"31458","You drop a bowling ball on a hat <br> T&uacute tiras una bola de boliche a una gorra","{""Q0"":4}","trial","21883","survey-likert","65","913677","0.0-5.0-0.52","11","1","2022-11-29 21:24:41","2df368f4e41f066fd1c82c297b4a1108","189.153.47.131","Mozilla/5.0 (Macintosh; Intel Mac OS X 10_15_7) AppleWebKit/537.36 (KHTML, like Gecko) Chrome/107.0.0.0 Safari/537.36","Macintosh","Chrome","107.0.0.0","OS X","10_15_7","[0]","","10","4",""
"12169","You drop a bowling ball on a rice cake <br> T&uacute tiras una bola de boliche a una tortita de arroz","{""Q0"":4}","trial","21883","survey-likert","66","925854","0.0-5.0-0.53","11","1","2022-11-29 21:24:41","2df368f4e41f066fd1c82c297b4a1108","189.153.47.131","Mozilla/5.0 (Macintosh; Intel Mac OS X 10_15_7) AppleWebKit/537.36 (KHTML, like Gecko) Chrome/107.0.0.0 Safari/537.36","Macintosh","Chrome","107.0.0.0","OS X","10_15_7","[0]","","18","4",""
"6574","You drop a thermometer on the box <br> T&uacute tiras un term&oacutemetro a la caja","{""Q0"":4}","trial","21883","survey-likert","67","932439","0.0-5.0-0.54","11","1","2022-11-29 21:24:41","2df368f4e41f066fd1c82c297b4a1108","189.153.47.131","Mozilla/5.0 (Macintosh; Intel Mac OS X 10_15_7) AppleWebKit/537.36 (KHTML, like Gecko) Chrome/107.0.0.0 Safari/537.36","Macintosh","Chrome","107.0.0.0","OS X","10_15_7","[0]","","70","4",""
"7894","You drop a bowling ball on a chocolate muffin <br> T&uacute tiras una bola de boliche a una magdalena de chocolate","{""Q0"":3}","trial","21883","survey-likert","68","940340","0.0-5.0-0.55","11","1","2022-11-29 21:24:41","2df368f4e41f066fd1c82c297b4a1108","189.153.47.131","Mozilla/5.0 (Macintosh; Intel Mac OS X 10_15_7) AppleWebKit/537.36 (KHTML, like Gecko) Chrome/107.0.0.0 Safari/537.36","Macintosh","Chrome","107.0.0.0","OS X","10_15_7","[0]","","16","3",""
"8734","You drop a watch on the laptop <br> T&uacute tiras un reloj al port&aacutetil","{""Q0"":3}","trial","21883","survey-likert","69","949082","0.0-5.0-0.56","11","1","2022-11-29 21:24:41","2df368f4e41f066fd1c82c297b4a1108","189.153.47.131","Mozilla/5.0 (Macintosh; Intel Mac OS X 10_15_7) AppleWebKit/537.36 (KHTML, like Gecko) Chrome/107.0.0.0 Safari/537.36","Macintosh","Chrome","107.0.0.0","OS X","10_15_7","[0]","","37","3",""
"3955","You drop a bowling ball on glasses <br> T&uacute tiras una bola de boliche a unas gafas","{""Q0"":4}","trial","21883","survey-likert","70","953046","0.0-5.0-0.57","11","1","2022-11-29 21:24:41","2df368f4e41f066fd1c82c297b4a1108","189.153.47.131","Mozilla/5.0 (Macintosh; Intel Mac OS X 10_15_7) AppleWebKit/537.36 (KHTML, like Gecko) Chrome/107.0.0.0 Safari/537.36","Macintosh","Chrome","107.0.0.0","OS X","10_15_7","[0]","","9","4",""
"3336","You drop a pencil on the shoe <br> T&uacute tiras un l&aacutepiz al zapato","{""Q0"":4}","trial","21883","survey-likert","71","956386","0.0-5.0-0.58","11","1","2022-11-29 21:24:41","2df368f4e41f066fd1c82c297b4a1108","189.153.47.131","Mozilla/5.0 (Macintosh; Intel Mac OS X 10_15_7) AppleWebKit/537.36 (KHTML, like Gecko) Chrome/107.0.0.0 Safari/537.36","Macintosh","Chrome","107.0.0.0","OS X","10_15_7","[0]","","40","4",""
"7968","You drop a bowling ball on a chocolate ice-cream <br> T&uacute tiras una bola de boliche a un helado de chocolate","{""Q0"":4}","trial","21883","survey-likert","72","964364","0.0-5.0-0.59","11","1","2022-11-29 21:24:41","2df368f4e41f066fd1c82c297b4a1108","189.153.47.131","Mozilla/5.0 (Macintosh; Intel Mac OS X 10_15_7) AppleWebKit/537.36 (KHTML, like Gecko) Chrome/107.0.0.0 Safari/537.36","Macintosh","Chrome","107.0.0.0","OS X","10_15_7","[0]","","11","4",""
"14586","You see how a man is playing with a cat <br> T&uacute ves como un hombre est&aacute jugando con un gato","{""Q0"":4}","trial","21883","survey-likert","73","978957","0.0-5.0-0.60","11","1","2022-11-29 21:24:41","2df368f4e41f066fd1c82c297b4a1108","189.153.47.131","Mozilla/5.0 (Macintosh; Intel Mac OS X 10_15_7) AppleWebKit/537.36 (KHTML, like Gecko) Chrome/107.0.0.0 Safari/537.36","Macintosh","Chrome","107.0.0.0","OS X","10_15_7","[0]","","67","4",""
"4067","You drop a remote on the rug <br> T&uacute tiras un control remoto a la alfombra","{""Q0"":4}","trial","21883","survey-likert","74","983031","0.0-5.0-0.61","11","1","2022-11-29 21:24:41","2df368f4e41f066fd1c82c297b4a1108","189.153.47.131","Mozilla/5.0 (Macintosh; Intel Mac OS X 10_15_7) AppleWebKit/537.36 (KHTML, like Gecko) Chrome/107.0.0.0 Safari/537.36","Macintosh","Chrome","107.0.0.0","OS X","10_15_7","[0]","","39","4",""
"5597","You drop a bowling ball on a wine glass <br> T&uacute tiras una bola de boliche a una copa de vino","{""Q0"":4}","trial","21883","survey-likert","75","988635","0.0-5.0-0.62","11","1","2022-11-29 21:24:41","2df368f4e41f066fd1c82c297b4a1108","189.153.47.131","Mozilla/5.0 (Macintosh; Intel Mac OS X 10_15_7) AppleWebKit/537.36 (KHTML, like Gecko) Chrome/107.0.0.0 Safari/537.36","Macintosh","Chrome","107.0.0.0","OS X","10_15_7","[0]","","5","4",""
"7044","You drop a towel on the TV <br> T&uacute tiras una toalla a la televisi&oacuten","{""Q0"":4}","trial","21883","survey-likert","76","995689","0.0-5.0-0.63","11","1","2022-11-29 21:24:41","2df368f4e41f066fd1c82c297b4a1108","189.153.47.131","Mozilla/5.0 (Macintosh; Intel Mac OS X 10_15_7) AppleWebKit/537.36 (KHTML, like Gecko) Chrome/107.0.0.0 Safari/537.36","Macintosh","Chrome","107.0.0.0","OS X","10_15_7","[0]","","53","4",""
"4047","You see how a giraffe is playing with a zebra <br> T&uacute ves como una jirafa est&aacute jugando con una cebra","{""Q0"":4}","trial","21883","survey-likert","77","999749","0.0-5.0-0.64","11","1","2022-11-29 21:24:41","2df368f4e41f066fd1c82c297b4a1108","189.153.47.131","Mozilla/5.0 (Macintosh; Intel Mac OS X 10_15_7) AppleWebKit/537.36 (KHTML, like Gecko) Chrome/107.0.0.0 Safari/537.36","Macintosh","Chrome","107.0.0.0","OS X","10_15_7","[0]","","65","4",""
"3006","You see how a donkey is drinking water <br> T&uacute ves como un burro est&aacute bebiendo agua","{""Q0"":4}","trial","21883","survey-likert","78","1002762","0.0-5.0-0.65","11","1","2022-11-29 21:24:41","2df368f4e41f066fd1c82c297b4a1108","189.153.47.131","Mozilla/5.0 (Macintosh; Intel Mac OS X 10_15_7) AppleWebKit/537.36 (KHTML, like Gecko) Chrome/107.0.0.0 Safari/537.36","Macintosh","Chrome","107.0.0.0","OS X","10_15_7","[0]","","45","4",""
"5219","You see how a thief is stealing a wallet <br> T&uacute ves como un ladr&oacuten est&aacute robando una billetera","{""Q0"":4}","trial","21883","survey-likert","79","1007987","0.0-5.0-0.66","11","1","2022-11-29 21:24:41","2df368f4e41f066fd1c82c297b4a1108","189.153.47.131","Mozilla/5.0 (Macintosh; Intel Mac OS X 10_15_7) AppleWebKit/537.36 (KHTML, like Gecko) Chrome/107.0.0.0 Safari/537.36","Macintosh","Chrome","107.0.0.0","OS X","10_15_7","[0]","","68","4",""
"10482","You see how a woman is taking money out of a wallet <br> T&uacute ves como una mujer est&aacute sacando dinero de su billetera","{""Q0"":1}","trial","21883","survey-likert","80","1018478","0.0-5.0-0.67","11","1","2022-11-29 21:24:41","2df368f4e41f066fd1c82c297b4a1108","189.153.47.131","Mozilla/5.0 (Macintosh; Intel Mac OS X 10_15_7) AppleWebKit/537.36 (KHTML, like Gecko) Chrome/107.0.0.0 Safari/537.36","Macintosh","Chrome","107.0.0.0","OS X","10_15_7","[0]","","44","1",""
"8864","You see how a woman is taking money out of a wallet <br> T&uacute ves como una mujer est&aacute sacando dinero de su billetera","{""Q0"":""Tú ves como una mujer está sacando dinero de una billetera""}","low_rate","21883","survey-text","81","1027354","0.0-5.0-1.67-0.67","11","1","2022-11-29 21:24:41","2df368f4e41f066fd1c82c297b4a1108","189.153.47.131","Mozilla/5.0 (Macintosh; Intel Mac OS X 10_15_7) AppleWebKit/537.36 (KHTML, like Gecko) Chrome/107.0.0.0 Safari/537.36","Macintosh","Chrome","107.0.0.0","OS X","10_15_7","","","44","",""
"4271","You see how a student is writing on a board <br> T&uacute ves como un estudiante est&aacute escribiendo en la pizarra","{""Q0"":4}","trial","21883","survey-likert","82","1031631","0.0-5.0-0.68","11","1","2022-11-29 21:24:41","2df368f4e41f066fd1c82c297b4a1108","189.153.47.131","Mozilla/5.0 (Macintosh; Intel Mac OS X 10_15_7) AppleWebKit/537.36 (KHTML, like Gecko) Chrome/107.0.0.0 Safari/537.36","Macintosh","Chrome","107.0.0.0","OS X","10_15_7","[0]","","50","4",""
"8780","You see how a teenage girl is playing the piano <br> T&uacute ves como una ni&ntildea adolescente est&aacute tocando el piano","{""Q0"":4}","trial","21883","survey-likert","83","1040419","0.0-5.0-0.69","11","1","2022-11-29 21:24:41","2df368f4e41f066fd1c82c297b4a1108","189.153.47.131","Mozilla/5.0 (Macintosh; Intel Mac OS X 10_15_7) AppleWebKit/537.36 (KHTML, like Gecko) Chrome/107.0.0.0 Safari/537.36","Macintosh","Chrome","107.0.0.0","OS X","10_15_7","[0]","","54","4",""
"4963","You drop a toothbrush on the sponge <br> T&uacute tiras un cepillo de dientes en la esponja","{""Q0"":4}","trial","21883","survey-likert","84","1045393","0.0-5.0-0.70","11","1","2022-11-29 21:24:41","2df368f4e41f066fd1c82c297b4a1108","189.153.47.131","Mozilla/5.0 (Macintosh; Intel Mac OS X 10_15_7) AppleWebKit/537.36 (KHTML, like Gecko) Chrome/107.0.0.0 Safari/537.36","Macintosh","Chrome","107.0.0.0","OS X","10_15_7","[0]","","25","4",""
"77259","You see how a man is shaving his beard <br> T&uacute ves como un hombre se est&aacute afeitando la barba","{""Q0"":4}","trial","21883","survey-likert","85","1122657","0.0-5.0-0.71","11","1","2022-11-29 21:24:41","2df368f4e41f066fd1c82c297b4a1108","189.153.47.131","Mozilla/5.0 (Macintosh; Intel Mac OS X 10_15_7) AppleWebKit/537.36 (KHTML, like Gecko) Chrome/107.0.0.0 Safari/537.36","Macintosh","Chrome","107.0.0.0","OS X","10_15_7","[0]","","43","4",""
"5576","
    <p style=""font-size:20px;""> You have completed the experiment portion! </p>
    <p style=""font-size:20px;""> Before you are done, we would like you to answer some basic demographic questions. </p>
    <p style=""font-size:20px;""> Note that your answers to these questions will not affect your compensation/credit. </p>
    <p style=""font-size:20px;""> Click the button below to continue.</p>
    ","0","demo","21883","html-button-response","86","1128244","0.0-6.0","11","1","2022-11-29 21:24:41","2df368f4e41f066fd1c82c297b4a1108","189.153.47.131","Mozilla/5.0 (Macintosh; Intel Mac OS X 10_15_7) AppleWebKit/537.36 (KHTML, like Gecko) Chrome/107.0.0.0 Safari/537.36","Macintosh","Chrome","107.0.0.0","OS X","10_15_7","","","","",""
"24793","","{""Age"":""21"",""Gender"":""female"",""Education"":""14""}","demo","21883","survey-text","87","1153044","0.0-7.0-0.0","11","1","2022-11-29 21:24:41","2df368f4e41f066fd1c82c297b4a1108","189.153.47.131","Mozilla/5.0 (Macintosh; Intel Mac OS X 10_15_7) AppleWebKit/537.36 (KHTML, like Gecko) Chrome/107.0.0.0 Safari/537.36","Macintosh","Chrome","107.0.0.0","OS X","10_15_7","","","","",""
"19017","","{""Race"":[""White/Caucasian"",""Other""]}","demo","21883","survey-multi-select","88","1172072","0.0-7.0-1.0","11","1","2022-11-29 21:24:41","2df368f4e41f066fd1c82c297b4a1108","189.153.47.131","Mozilla/5.0 (Macintosh; Intel Mac OS X 10_15_7) AppleWebKit/537.36 (KHTML, like Gecko) Chrome/107.0.0.0 Safari/537.36","Macintosh","Chrome","107.0.0.0","OS X","10_15_7","[0]","","","",""
"36176","","{""Latino"":""Yes"",""Alert"":""Evening""}","demo","21883","survey-multi-choice","89","1208259","0.0-7.0-2.0","11","1","2022-11-29 21:24:41","2df368f4e41f066fd1c82c297b4a1108","189.153.47.131","Mozilla/5.0 (Macintosh; Intel Mac OS X 10_15_7) AppleWebKit/537.36 (KHTML, like Gecko) Chrome/107.0.0.0 Safari/537.36","Macintosh","Chrome","107.0.0.0","OS X","10_15_7","[0,1]","","","",""
"8812","","{""Q0"":""no""}","demo","21883","survey-text","90","1217100","0.0-7.0-3.0","11","1","2022-11-29 21:24:41","2df368f4e41f066fd1c82c297b4a1108","189.153.47.131","Mozilla/5.0 (Macintosh; Intel Mac OS X 10_15_7) AppleWebKit/537.36 (KHTML, like Gecko) Chrome/107.0.0.0 Safari/537.36","Macintosh","Chrome","107.0.0.0","OS X","10_15_7","","","","",""
"37164","<p>Thank you for participating! </p><strong>Your completion code is: CXEJB7NH. Please copy-paste this code and submit it on Prolific.</strong><p>Click <a href=""https://drive.google.com/file/d/1c70cdHFlc0AaR6RujLWLJwWkv1RbHQJY/view?usp=sharing"" target=""_blank"" rel=""noopener noreferrer"">here</a> to access the debriefing form and know more about our research. <p> Please click the button below to finish the experiment and save your data.</p> <p> IMPORTANT: Please <strong>do not leave this page </strong> without clicking the button below.</p> <p> You may close the tab/window after you click the button below.","0","","","html-button-response","91","1254296","0.0-8.0","11","1","2022-11-29 21:24:41","2df368f4e41f066fd1c82c297b4a1108","189.153.47.131","Mozilla/5.0 (Macintosh; Intel Mac OS X 10_15_7) AppleWebKit/537.36 (KHTML, like Gecko) Chrome/107.0.0.0 Safari/537.36","Macintosh","Chrome","107.0.0.0","OS X","10_15_7","","","","",""
