"rt","stimulus","response","typeoftrial","subject","trial_type","trial_index","time_elapsed","internal_node_id","run_id","condition","recorded_at","source_code_version","ip","user_agent","device","browser","browser_version","platform","platform_version","question_order","practice_rating","sentence_num","rating","Experiment"
"39872","
        <p style=""font-size:20px;""> Welcome! Thank you for your interest in our study. </p>
        <p style=""font-size:20px;""> This study is being conducted by researchers at Bowdoin College.</p>
        <p style=""font-size:20px;""> In this experiment, you will be asked to rate the accuracy of English and Spanish translations.</p>
        <p style=""font-size:20px;""> The entire experiment should not last more than 20 minutes. You will be paid $3 USD for your participation. </p>
        <p style=""font-size:20px;""> Please click <a href = ""https://drive.google.com/file/d/1L92a02eEKCpaAEipmqDcBCDR7rsarqFE/view?usp=sharing"" target = ""_blank"">here</a> to read the full consent form. </p>
        <p style=""font-size:20px;""> If you agree to participate, please click the button below to continue to experiment instructions.</p>
        ","0","consent","58413","html-button-response","0","39875","0.0-0.0","31","1","2022-11-29 21:24:58","2df368f4e41f066fd1c82c297b4a1108","189.161.152.64","Mozilla/5.0 (Windows NT 10.0; Win64; x64) AppleWebKit/537.36 (KHTML, like Gecko) Chrome/107.0.0.0 Safari/537.36","WebKit","Chrome","107.0.0.0","Windows","10.0","","","","",""
"3545","","{""ID"":""5f3c202dc59223a250d37f11""}","ID","58413","survey-text","1","43427","0.0-1.0","31","1","2022-11-29 21:24:58","2df368f4e41f066fd1c82c297b4a1108","189.161.152.64","Mozilla/5.0 (Windows NT 10.0; Win64; x64) AppleWebKit/537.36 (KHTML, like Gecko) Chrome/107.0.0.0 Safari/537.36","WebKit","Chrome","107.0.0.0","Windows","10.0","","","","",""
"22153","
        <p style=""font-size:20px;""> You are about to begin the practice test. </p>
        <p style=""font-size:20px;""> On each trial, you will see a sentence in English and its corresponding Spanish translation. </p>
        <p style=""font-size:20px;""> You will rate the accuracy of the translation on a scale from ""Not at all accurate"" to ""Very accurate."" </p>
        <p style=""font-size:20px;""> If you rate the translation as ""Somewhat innaccurate"" or ""Not at all accurate,"" you will be asked to provide your own translation or a reason why the translation is inaccurate. </p>
        <p style=""font-size:20px;""> Click the button below to continue to the practice session.</p>","0","instructions","58413","html-button-response","2","65582","0.0-2.0","31","1","2022-11-29 21:24:58","2df368f4e41f066fd1c82c297b4a1108","189.161.152.64","Mozilla/5.0 (Windows NT 10.0; Win64; x64) AppleWebKit/537.36 (KHTML, like Gecko) Chrome/107.0.0.0 Safari/537.36","WebKit","Chrome","107.0.0.0","Windows","10.0","","","","",""
"24517","You see how a teacher is drawing a picture <br> T&uacute ves como un maestro pinta una foto","{""Q0"":3}","practice","58413","survey-likert","3","90102","0.0-3.0-0.0","31","1","2022-11-29 21:24:58","2df368f4e41f066fd1c82c297b4a1108","189.161.152.64","Mozilla/5.0 (Windows NT 10.0; Win64; x64) AppleWebKit/537.36 (KHTML, like Gecko) Chrome/107.0.0.0 Safari/537.36","WebKit","Chrome","107.0.0.0","Windows","10.0","[0]","3","","",""
"10832","You see how a tiger is playing with a goose <br> T&uacute ves como un le&oacuten come una pizza","{""Q0"":0}","practice","58413","survey-likert","4","100938","0.0-3.0-0.1","31","1","2022-11-29 21:24:58","2df368f4e41f066fd1c82c297b4a1108","189.161.152.64","Mozilla/5.0 (Windows NT 10.0; Win64; x64) AppleWebKit/537.36 (KHTML, like Gecko) Chrome/107.0.0.0 Safari/537.36","WebKit","Chrome","107.0.0.0","Windows","10.0","[0]","0","","",""
"24697","You see how a tiger is playing with a goose <br> T&uacute ves como un le&oacuten come una pizza","{""Q0"":""because playing is not eating""}","practice_low_rate","58413","survey-text","5","125641","0.0-3.0-1.1-0.1","31","1","2022-11-29 21:24:58","2df368f4e41f066fd1c82c297b4a1108","189.161.152.64","Mozilla/5.0 (Windows NT 10.0; Win64; x64) AppleWebKit/537.36 (KHTML, like Gecko) Chrome/107.0.0.0 Safari/537.36","WebKit","Chrome","107.0.0.0","Windows","10.0","","","5","",""
"9552","You see how a duck is playing with a pumpkin <br> T&uacute ves como un pato est&aacute jugando con una calabaza","{""Q0"":4}","practice","58413","survey-likert","6","135195","0.0-3.0-0.2","31","1","2022-11-29 21:24:58","2df368f4e41f066fd1c82c297b4a1108","189.161.152.64","Mozilla/5.0 (Windows NT 10.0; Win64; x64) AppleWebKit/537.36 (KHTML, like Gecko) Chrome/107.0.0.0 Safari/537.36","WebKit","Chrome","107.0.0.0","Windows","10.0","[0]","4","","",""
"17074","You drop a bowling ball on a mircrowave <br> T&uacute tiras una bola de boliche a un horno","{""Q0"":1}","practice","58413","survey-likert","7","152272","0.0-3.0-0.3","31","1","2022-11-29 21:24:58","2df368f4e41f066fd1c82c297b4a1108","189.161.152.64","Mozilla/5.0 (Windows NT 10.0; Win64; x64) AppleWebKit/537.36 (KHTML, like Gecko) Chrome/107.0.0.0 Safari/537.36","WebKit","Chrome","107.0.0.0","Windows","10.0","[0]","1","","",""
"8878","You drop a bowling ball on a mircrowave <br> T&uacute tiras una bola de boliche a un horno","{""Q0"":""microwave es microondas""}","practice_low_rate","58413","survey-text","8","161155","0.0-3.0-1.3-0.3","31","1","2022-11-29 21:24:58","2df368f4e41f066fd1c82c297b4a1108","189.161.152.64","Mozilla/5.0 (Windows NT 10.0; Win64; x64) AppleWebKit/537.36 (KHTML, like Gecko) Chrome/107.0.0.0 Safari/537.36","WebKit","Chrome","107.0.0.0","Windows","10.0","","","6","",""
"7643","You drop a rock on a phone <br> T&uacute tiras una piedra a un tel&eacutefono","{""Q0"":4}","practice","58413","survey-likert","9","168800","0.0-3.0-0.4","31","1","2022-11-29 21:24:58","2df368f4e41f066fd1c82c297b4a1108","189.161.152.64","Mozilla/5.0 (Windows NT 10.0; Win64; x64) AppleWebKit/537.36 (KHTML, like Gecko) Chrome/107.0.0.0 Safari/537.36","WebKit","Chrome","107.0.0.0","Windows","10.0","[0]","4","","",""
"29544","You see how an artist is running <br> T&uacute ves como un artista est&aacute corriendo","{""Q0"":4}","practice","58413","survey-likert","10","198349","0.0-3.0-0.5","31","1","2022-11-29 21:24:58","2df368f4e41f066fd1c82c297b4a1108","189.161.152.64","Mozilla/5.0 (Windows NT 10.0; Win64; x64) AppleWebKit/537.36 (KHTML, like Gecko) Chrome/107.0.0.0 Safari/537.36","WebKit","Chrome","107.0.0.0","Windows","10.0","[0]","4","","",""
"2396","<p style=""font-size:20px;"">You have now completed the practice session! </p>
        <p style=""font-size:20px;"">You will now move on to the main experiment. </p>
        <p style=""font-size:20px;"">Please click the button below to continue. </p>","0","movetoexp","58413","html-button-response","11","200749","0.0-4.0","31","1","2022-11-29 21:24:58","2df368f4e41f066fd1c82c297b4a1108","189.161.152.64","Mozilla/5.0 (Windows NT 10.0; Win64; x64) AppleWebKit/537.36 (KHTML, like Gecko) Chrome/107.0.0.0 Safari/537.36","WebKit","Chrome","107.0.0.0","Windows","10.0","","","","",""
"8391","You see how a pilot is reading a book <br> T&uacute ves como un piloto est&aacute leyendo un libro","{""Q0"":4}","trial","58413","survey-likert","12","209142","0.0-5.0-0.0","31","1","2022-11-29 21:24:58","2df368f4e41f066fd1c82c297b4a1108","189.161.152.64","Mozilla/5.0 (Windows NT 10.0; Win64; x64) AppleWebKit/537.36 (KHTML, like Gecko) Chrome/107.0.0.0 Safari/537.36","WebKit","Chrome","107.0.0.0","Windows","10.0","[0]","","61","4",""
"9215","You see how a man is shaving his beard <br> T&uacute ves como un hombre se est&aacute afeitando la barba","{""Q0"":4}","trial","58413","survey-likert","13","218361","0.0-5.0-0.1","31","1","2022-11-29 21:24:58","2df368f4e41f066fd1c82c297b4a1108","189.161.152.64","Mozilla/5.0 (Windows NT 10.0; Win64; x64) AppleWebKit/537.36 (KHTML, like Gecko) Chrome/107.0.0.0 Safari/537.36","WebKit","Chrome","107.0.0.0","Windows","10.0","[0]","","43","4",""
"6066","You see how a thief is stealing a wallet <br> T&uacute ves como un ladr&oacuten est&aacute robando una billetera","{""Q0"":4}","trial","58413","survey-likert","14","224430","0.0-5.0-0.2","31","1","2022-11-29 21:24:58","2df368f4e41f066fd1c82c297b4a1108","189.161.152.64","Mozilla/5.0 (Windows NT 10.0; Win64; x64) AppleWebKit/537.36 (KHTML, like Gecko) Chrome/107.0.0.0 Safari/537.36","WebKit","Chrome","107.0.0.0","Windows","10.0","[0]","","68","4",""
"5721","You see how a man is boiling potatoes <br> T&uacute ves a un hombre est&aacute hirviendo papas","{""Q0"":4}","trial","58413","survey-likert","15","230156","0.0-5.0-0.3","31","1","2022-11-29 21:24:58","2df368f4e41f066fd1c82c297b4a1108","189.161.152.64","Mozilla/5.0 (Windows NT 10.0; Win64; x64) AppleWebKit/537.36 (KHTML, like Gecko) Chrome/107.0.0.0 Safari/537.36","WebKit","Chrome","107.0.0.0","Windows","10.0","[0]","","46","4",""
"14408","You drop a cabbage on the table <br> T&uacute tiras una col a la mesa","{""Q0"":1}","trial","58413","survey-likert","16","244567","0.0-5.0-0.4","31","1","2022-11-29 21:24:58","2df368f4e41f066fd1c82c297b4a1108","189.161.152.64","Mozilla/5.0 (Windows NT 10.0; Win64; x64) AppleWebKit/537.36 (KHTML, like Gecko) Chrome/107.0.0.0 Safari/537.36","WebKit","Chrome","107.0.0.0","Windows","10.0","[0]","","35","1",""
"7363","You drop a cabbage on the table <br> T&uacute tiras una col a la mesa","{""Q0"":""sería \""en la mesa\""""}","low_rate","58413","survey-text","17","251935","0.0-5.0-1.4-0.4","31","1","2022-11-29 21:24:58","2df368f4e41f066fd1c82c297b4a1108","189.161.152.64","Mozilla/5.0 (Windows NT 10.0; Win64; x64) AppleWebKit/537.36 (KHTML, like Gecko) Chrome/107.0.0.0 Safari/537.36","WebKit","Chrome","107.0.0.0","Windows","10.0","","","35","",""
"67709","You drop a bowling ball on an iPAD <br> T&uacute tiras una bola de boliche a un iPad","{""Q0"":3}","trial","58413","survey-likert","18","319644","0.0-5.0-0.5","31","1","2022-11-29 21:24:58","2df368f4e41f066fd1c82c297b4a1108","189.161.152.64","Mozilla/5.0 (Windows NT 10.0; Win64; x64) AppleWebKit/537.36 (KHTML, like Gecko) Chrome/107.0.0.0 Safari/537.36","WebKit","Chrome","107.0.0.0","Windows","10.0","[0]","","12","3",""
"62716","You drop a bowling ball on a piece of cake <br> T&uacute tiras una bola de boliche a un trozo de pastel","{""Q0"":2}","trial","58413","survey-likert","19","382365","0.0-5.0-0.6","31","1","2022-11-29 21:24:58","2df368f4e41f066fd1c82c297b4a1108","189.161.152.64","Mozilla/5.0 (Windows NT 10.0; Win64; x64) AppleWebKit/537.36 (KHTML, like Gecko) Chrome/107.0.0.0 Safari/537.36","WebKit","Chrome","107.0.0.0","Windows","10.0","[0]","","2","2",""
"24790","You drop a bowling ball on a chocolate muffin <br> T&uacute tiras una bola de boliche a una magdalena de chocolate","{""Q0"":3}","trial","58413","survey-likert","20","407159","0.0-5.0-0.7","31","1","2022-11-29 21:24:58","2df368f4e41f066fd1c82c297b4a1108","189.161.152.64","Mozilla/5.0 (Windows NT 10.0; Win64; x64) AppleWebKit/537.36 (KHTML, like Gecko) Chrome/107.0.0.0 Safari/537.36","WebKit","Chrome","107.0.0.0","Windows","10.0","[0]","","16","3",""
"6105","You see how an astronaut is putting on a space suit <br> T&uacute ves como un astronauta se est&aacute poniendo su traje espacial","{""Q0"":4}","trial","58413","survey-likert","21","413268","0.0-5.0-0.8","31","1","2022-11-29 21:24:58","2df368f4e41f066fd1c82c297b4a1108","189.161.152.64","Mozilla/5.0 (Windows NT 10.0; Win64; x64) AppleWebKit/537.36 (KHTML, like Gecko) Chrome/107.0.0.0 Safari/537.36","WebKit","Chrome","107.0.0.0","Windows","10.0","[0]","","33","4",""
"8919","You see how a cat is drinking water from a bowl <br> T&uacute ves como un gato est&aacute bebiendo agua de un cuenco","{""Q0"":3}","trial","58413","survey-likert","22","422191","0.0-5.0-0.9","31","1","2022-11-29 21:24:58","2df368f4e41f066fd1c82c297b4a1108","189.161.152.64","Mozilla/5.0 (Windows NT 10.0; Win64; x64) AppleWebKit/537.36 (KHTML, like Gecko) Chrome/107.0.0.0 Safari/537.36","WebKit","Chrome","107.0.0.0","Windows","10.0","[0]","","28","3",""
"9754","You see how a doctor is taking a stethoscope <br> T&uacute ves como un doctor est&aacute agarrando un estetoscopio","{""Q0"":4}","trial","58413","survey-likert","23","431949","0.0-5.0-0.10","31","1","2022-11-29 21:24:58","2df368f4e41f066fd1c82c297b4a1108","189.161.152.64","Mozilla/5.0 (Windows NT 10.0; Win64; x64) AppleWebKit/537.36 (KHTML, like Gecko) Chrome/107.0.0.0 Safari/537.36","WebKit","Chrome","107.0.0.0","Windows","10.0","[0]","","49","4",""
"13473","You drop a bowling ball on an empty can of beer <br> T&uacute tiras una bola de boliche a una lata de cerveza vac&iacutea","{""Q0"":3}","trial","58413","survey-likert","24","445424","0.0-5.0-0.11","31","1","2022-11-29 21:24:58","2df368f4e41f066fd1c82c297b4a1108","189.161.152.64","Mozilla/5.0 (Windows NT 10.0; Win64; x64) AppleWebKit/537.36 (KHTML, like Gecko) Chrome/107.0.0.0 Safari/537.36","WebKit","Chrome","107.0.0.0","Windows","10.0","[0]","","3","3",""
"7541","You see how a zebra is playing with a horse <br> T&uacute ves como una cebra est&aacute jugando con un caballo","{""Q0"":4}","trial","58413","survey-likert","25","452969","0.0-5.0-0.12","31","1","2022-11-29 21:24:58","2df368f4e41f066fd1c82c297b4a1108","189.161.152.64","Mozilla/5.0 (Windows NT 10.0; Win64; x64) AppleWebKit/537.36 (KHTML, like Gecko) Chrome/107.0.0.0 Safari/537.36","WebKit","Chrome","107.0.0.0","Windows","10.0","[0]","","66","4",""
"7295","You drop a pencil on the shoe <br> T&uacute tiras un l&aacutepiz al zapato","{""Q0"":4}","trial","58413","survey-likert","26","460268","0.0-5.0-0.13","31","1","2022-11-29 21:24:58","2df368f4e41f066fd1c82c297b4a1108","189.161.152.64","Mozilla/5.0 (Windows NT 10.0; Win64; x64) AppleWebKit/537.36 (KHTML, like Gecko) Chrome/107.0.0.0 Safari/537.36","WebKit","Chrome","107.0.0.0","Windows","10.0","[0]","","40","4",""
"7265","You drop a bowling ball on a strawberry <br> T&uacute tiras una bola de boliche a una fresa","{""Q0"":3}","trial","58413","survey-likert","27","467537","0.0-5.0-0.14","31","1","2022-11-29 21:24:58","2df368f4e41f066fd1c82c297b4a1108","189.161.152.64","Mozilla/5.0 (Windows NT 10.0; Win64; x64) AppleWebKit/537.36 (KHTML, like Gecko) Chrome/107.0.0.0 Safari/537.36","WebKit","Chrome","107.0.0.0","Windows","10.0","[0]","","20","3",""
"29855","You drop a bowling ball on a wine glass <br> T&uacute tiras una bola de boliche a una copa de vino","{""Q0"":4}","trial","58413","survey-likert","28","497396","0.0-5.0-0.15","31","1","2022-11-29 21:24:58","2df368f4e41f066fd1c82c297b4a1108","189.161.152.64","Mozilla/5.0 (Windows NT 10.0; Win64; x64) AppleWebKit/537.36 (KHTML, like Gecko) Chrome/107.0.0.0 Safari/537.36","WebKit","Chrome","107.0.0.0","Windows","10.0","[0]","","5","4",""
"58709","You see how a photographer is taking a photo of a lion <br> T&uacute ves como un fot&oacutegrafo est&aacute tomando una foto de un le&oacuten","{""Q0"":3}","trial","58413","survey-likert","29","556108","0.0-5.0-0.16","31","1","2022-11-29 21:24:58","2df368f4e41f066fd1c82c297b4a1108","189.161.152.64","Mozilla/5.0 (Windows NT 10.0; Win64; x64) AppleWebKit/537.36 (KHTML, like Gecko) Chrome/107.0.0.0 Safari/537.36","WebKit","Chrome","107.0.0.0","Windows","10.0","[0]","","72","3",""
"42698","You see how a musician is playing a guitar <br> T&uacute ves como un m&uacutesico est&aacute tocando la guitarra","{""Q0"":3}","trial","58413","survey-likert","30","598811","0.0-5.0-0.17","31","1","2022-11-29 21:24:58","2df368f4e41f066fd1c82c297b4a1108","189.161.152.64","Mozilla/5.0 (Windows NT 10.0; Win64; x64) AppleWebKit/537.36 (KHTML, like Gecko) Chrome/107.0.0.0 Safari/537.36","WebKit","Chrome","107.0.0.0","Windows","10.0","[0]","","27","3",""
"14430","You drop a remote on the rug <br> T&uacute tiras un control remoto a la alfombra","{""Q0"":4}","trial","58413","survey-likert","31","613245","0.0-5.0-0.18","31","1","2022-11-29 21:24:58","2df368f4e41f066fd1c82c297b4a1108","189.161.152.64","Mozilla/5.0 (Windows NT 10.0; Win64; x64) AppleWebKit/537.36 (KHTML, like Gecko) Chrome/107.0.0.0 Safari/537.36","WebKit","Chrome","107.0.0.0","Windows","10.0","[0]","","39","4",""
"8094","You drop a fork on the plate <br> T&uacute tiras un tenedor al plato","{""Q0"":4}","trial","58413","survey-likert","32","621343","0.0-5.0-0.19","31","1","2022-11-29 21:24:58","2df368f4e41f066fd1c82c297b4a1108","189.161.152.64","Mozilla/5.0 (Windows NT 10.0; Win64; x64) AppleWebKit/537.36 (KHTML, like Gecko) Chrome/107.0.0.0 Safari/537.36","WebKit","Chrome","107.0.0.0","Windows","10.0","[0]","","26","4",""
"6864","You see how a teenage girl is playing the piano <br> T&uacute ves como una ni&ntildea adolescente est&aacute tocando el piano","{""Q0"":4}","trial","58413","survey-likert","33","628210","0.0-5.0-0.20","31","1","2022-11-29 21:24:58","2df368f4e41f066fd1c82c297b4a1108","189.161.152.64","Mozilla/5.0 (Windows NT 10.0; Win64; x64) AppleWebKit/537.36 (KHTML, like Gecko) Chrome/107.0.0.0 Safari/537.36","WebKit","Chrome","107.0.0.0","Windows","10.0","[0]","","54","4",""
"7266","You drop a towel on the TV <br> T&uacute tiras una toalla a la televisi&oacuten","{""Q0"":4}","trial","58413","survey-likert","34","635480","0.0-5.0-0.21","31","1","2022-11-29 21:24:58","2df368f4e41f066fd1c82c297b4a1108","189.161.152.64","Mozilla/5.0 (Windows NT 10.0; Win64; x64) AppleWebKit/537.36 (KHTML, like Gecko) Chrome/107.0.0.0 Safari/537.36","WebKit","Chrome","107.0.0.0","Windows","10.0","[0]","","53","4",""
"9137","You see how an old man is hammering a nail <br> T&uacute ves como un hombre anciano est&aacute martillando un clavo","{""Q0"":4}","trial","58413","survey-likert","35","644621","0.0-5.0-0.22","31","1","2022-11-29 21:24:58","2df368f4e41f066fd1c82c297b4a1108","189.161.152.64","Mozilla/5.0 (Windows NT 10.0; Win64; x64) AppleWebKit/537.36 (KHTML, like Gecko) Chrome/107.0.0.0 Safari/537.36","WebKit","Chrome","107.0.0.0","Windows","10.0","[0]","","29","4",""
"6627","You drop a thermometer on the box <br> T&uacute tiras un term&oacutemetro a la caja","{""Q0"":4}","trial","58413","survey-likert","36","651252","0.0-5.0-0.23","31","1","2022-11-29 21:24:58","2df368f4e41f066fd1c82c297b4a1108","189.161.152.64","Mozilla/5.0 (Windows NT 10.0; Win64; x64) AppleWebKit/537.36 (KHTML, like Gecko) Chrome/107.0.0.0 Safari/537.36","WebKit","Chrome","107.0.0.0","Windows","10.0","[0]","","70","4",""
"67814","You see how an owl is sitting on the branch <br> T&uacute ves como un b&uacuteho est&aacute reposando en una rama","{""Q0"":4}","trial","58413","survey-likert","37","719064","0.0-5.0-0.24","31","1","2022-11-29 21:24:58","2df368f4e41f066fd1c82c297b4a1108","189.161.152.64","Mozilla/5.0 (Windows NT 10.0; Win64; x64) AppleWebKit/537.36 (KHTML, like Gecko) Chrome/107.0.0.0 Safari/537.36","WebKit","Chrome","107.0.0.0","Windows","10.0","[0]","","69","4",""
"6924","You drop a bowling ball on a piece of sushi <br> T&uacute tiras una bola de boliche a un pedazo de sushi","{""Q0"":4}","trial","58413","survey-likert","38","725992","0.0-5.0-0.25","31","1","2022-11-29 21:24:58","2df368f4e41f066fd1c82c297b4a1108","189.161.152.64","Mozilla/5.0 (Windows NT 10.0; Win64; x64) AppleWebKit/537.36 (KHTML, like Gecko) Chrome/107.0.0.0 Safari/537.36","WebKit","Chrome","107.0.0.0","Windows","10.0","[0]","","21","4",""
"8655","You see how a student is writing on a board <br> T&uacute ves como un estudiante est&aacute escribiendo en la pizarra","{""Q0"":4}","trial","58413","survey-likert","39","734651","0.0-5.0-0.26","31","1","2022-11-29 21:24:58","2df368f4e41f066fd1c82c297b4a1108","189.161.152.64","Mozilla/5.0 (Windows NT 10.0; Win64; x64) AppleWebKit/537.36 (KHTML, like Gecko) Chrome/107.0.0.0 Safari/537.36","WebKit","Chrome","107.0.0.0","Windows","10.0","[0]","","50","4",""
"5919","You drop a bowling ball on a ceramic plate <br> T&uacute tiras una bola de boliche a un plato de cer&aacutemica","{""Q0"":4}","trial","58413","survey-likert","40","740575","0.0-5.0-0.27","31","1","2022-11-29 21:24:58","2df368f4e41f066fd1c82c297b4a1108","189.161.152.64","Mozilla/5.0 (Windows NT 10.0; Win64; x64) AppleWebKit/537.36 (KHTML, like Gecko) Chrome/107.0.0.0 Safari/537.36","WebKit","Chrome","107.0.0.0","Windows","10.0","[0]","","19","4",""
"5840","You see how an actress is taking a microphone <br> T&uacute ves como una actriz est&aacute agarrando el micr&oacutefono","{""Q0"":4}","trial","58413","survey-likert","41","746419","0.0-5.0-0.28","31","1","2022-11-29 21:24:58","2df368f4e41f066fd1c82c297b4a1108","189.161.152.64","Mozilla/5.0 (Windows NT 10.0; Win64; x64) AppleWebKit/537.36 (KHTML, like Gecko) Chrome/107.0.0.0 Safari/537.36","WebKit","Chrome","107.0.0.0","Windows","10.0","[0]","","51","4",""
"16692","You drop a bowling ball on a tile <br> T&uacute tiras una bola de boliche a una baldosa","{""Q0"":3}","trial","58413","survey-likert","42","763115","0.0-5.0-0.29","31","1","2022-11-29 21:24:58","2df368f4e41f066fd1c82c297b4a1108","189.161.152.64","Mozilla/5.0 (Windows NT 10.0; Win64; x64) AppleWebKit/537.36 (KHTML, like Gecko) Chrome/107.0.0.0 Safari/537.36","WebKit","Chrome","107.0.0.0","Windows","10.0","[0]","","22","3",""
"5997","You see how a kitten is playing in the sandbox <br> T&uacute ves como un gatito est&aacute jugando en la caja de arena","{""Q0"":4}","trial","58413","survey-likert","43","769117","0.0-5.0-0.30","31","1","2022-11-29 21:24:58","2df368f4e41f066fd1c82c297b4a1108","189.161.152.64","Mozilla/5.0 (Windows NT 10.0; Win64; x64) AppleWebKit/537.36 (KHTML, like Gecko) Chrome/107.0.0.0 Safari/537.36","WebKit","Chrome","107.0.0.0","Windows","10.0","[0]","","52","4",""
"5397","You see how a president is writing in the notebook <br> T&uacute ves como un presidente est&aacute escribiendo en la libreta","{""Q0"":4}","trial","58413","survey-likert","44","774518","0.0-5.0-0.31","31","1","2022-11-29 21:24:58","2df368f4e41f066fd1c82c297b4a1108","189.161.152.64","Mozilla/5.0 (Windows NT 10.0; Win64; x64) AppleWebKit/537.36 (KHTML, like Gecko) Chrome/107.0.0.0 Safari/537.36","WebKit","Chrome","107.0.0.0","Windows","10.0","[0]","","63","4",""
"5713","You drop a toothbrush on the sponge <br> T&uacute tiras un cepillo de dientes en la esponja","{""Q0"":4}","trial","58413","survey-likert","45","780239","0.0-5.0-0.32","31","1","2022-11-29 21:24:58","2df368f4e41f066fd1c82c297b4a1108","189.161.152.64","Mozilla/5.0 (Windows NT 10.0; Win64; x64) AppleWebKit/537.36 (KHTML, like Gecko) Chrome/107.0.0.0 Safari/537.36","WebKit","Chrome","107.0.0.0","Windows","10.0","[0]","","25","4",""
"13120","You drop a bowling ball on glasses <br> T&uacute tiras una bola de boliche a unas gafas","{""Q0"":4}","trial","58413","survey-likert","46","793363","0.0-5.0-0.33","31","1","2022-11-29 21:24:58","2df368f4e41f066fd1c82c297b4a1108","189.161.152.64","Mozilla/5.0 (Windows NT 10.0; Win64; x64) AppleWebKit/537.36 (KHTML, like Gecko) Chrome/107.0.0.0 Safari/537.36","WebKit","Chrome","107.0.0.0","Windows","10.0","[0]","","9","4",""
"4944","You see how a donkey is drinking water <br> T&uacute ves como un burro est&aacute bebiendo agua","{""Q0"":4}","trial","58413","survey-likert","47","798311","0.0-5.0-0.34","31","1","2022-11-29 21:24:58","2df368f4e41f066fd1c82c297b4a1108","189.161.152.64","Mozilla/5.0 (Windows NT 10.0; Win64; x64) AppleWebKit/537.36 (KHTML, like Gecko) Chrome/107.0.0.0 Safari/537.36","WebKit","Chrome","107.0.0.0","Windows","10.0","[0]","","45","4",""
"10553","You drop a bowling ball on a rice cake <br> T&uacute tiras una bola de boliche a una tortita de arroz","{""Q0"":3}","trial","58413","survey-likert","48","808867","0.0-5.0-0.35","31","1","2022-11-29 21:24:58","2df368f4e41f066fd1c82c297b4a1108","189.161.152.64","Mozilla/5.0 (Windows NT 10.0; Win64; x64) AppleWebKit/537.36 (KHTML, like Gecko) Chrome/107.0.0.0 Safari/537.36","WebKit","Chrome","107.0.0.0","Windows","10.0","[0]","","18","3",""
"7049","You see how a dentist is drinking a can of cola <br> T&uacute ves como un dentista est&aacute bebiendo una lata de cola","{""Q0"":4}","trial","58413","survey-likert","49","815921","0.0-5.0-0.36","31","1","2022-11-29 21:24:58","2df368f4e41f066fd1c82c297b4a1108","189.161.152.64","Mozilla/5.0 (Windows NT 10.0; Win64; x64) AppleWebKit/537.36 (KHTML, like Gecko) Chrome/107.0.0.0 Safari/537.36","WebKit","Chrome","107.0.0.0","Windows","10.0","[0]","","47","4",""
"7099","You see how a hairdresser is taking scissors <br> T&uacute ves como una peluquera est&aacute agarrando las tijeras","{""Q0"":4}","trial","58413","survey-likert","50","823023","0.0-5.0-0.37","31","1","2022-11-29 21:24:58","2df368f4e41f066fd1c82c297b4a1108","189.161.152.64","Mozilla/5.0 (Windows NT 10.0; Win64; x64) AppleWebKit/537.36 (KHTML, like Gecko) Chrome/107.0.0.0 Safari/537.36","WebKit","Chrome","107.0.0.0","Windows","10.0","[0]","","60","4",""
"6193","You see how a puppy is playing with a ball <br> T&uacute ves como un cachorro est&aacute jugando con una pelota","{""Q0"":4}","trial","58413","survey-likert","51","829221","0.0-5.0-0.38","31","1","2022-11-29 21:24:58","2df368f4e41f066fd1c82c297b4a1108","189.161.152.64","Mozilla/5.0 (Windows NT 10.0; Win64; x64) AppleWebKit/537.36 (KHTML, like Gecko) Chrome/107.0.0.0 Safari/537.36","WebKit","Chrome","107.0.0.0","Windows","10.0","[0]","","34","4",""
"5909","You see how a horse is chewing hay <br> T&uacute ves como un caballo est&aacute masticando el heno","{""Q0"":4}","trial","58413","survey-likert","52","835134","0.0-5.0-0.39","31","1","2022-11-29 21:24:58","2df368f4e41f066fd1c82c297b4a1108","189.161.152.64","Mozilla/5.0 (Windows NT 10.0; Win64; x64) AppleWebKit/537.36 (KHTML, like Gecko) Chrome/107.0.0.0 Safari/537.36","WebKit","Chrome","107.0.0.0","Windows","10.0","[0]","","55","4",""
"5623","You see how a butterfly is sitting on a flower <br> T&uacute ves como una mariposa est&aacute reposando en una flor","{""Q0"":4}","trial","58413","survey-likert","53","840757","0.0-5.0-0.40","31","1","2022-11-29 21:24:58","2df368f4e41f066fd1c82c297b4a1108","189.161.152.64","Mozilla/5.0 (Windows NT 10.0; Win64; x64) AppleWebKit/537.36 (KHTML, like Gecko) Chrome/107.0.0.0 Safari/537.36","WebKit","Chrome","107.0.0.0","Windows","10.0","[0]","","59","4",""
"5603","You see how a cook is taking a knife <br> T&uacute ves como un cocinero est&aacute agarrando un cuchillo","{""Q0"":4}","trial","58413","survey-likert","54","846364","0.0-5.0-0.41","31","1","2022-11-29 21:24:58","2df368f4e41f066fd1c82c297b4a1108","189.161.152.64","Mozilla/5.0 (Windows NT 10.0; Win64; x64) AppleWebKit/537.36 (KHTML, like Gecko) Chrome/107.0.0.0 Safari/537.36","WebKit","Chrome","107.0.0.0","Windows","10.0","[0]","","71","4",""
"5042","You drop a bowling ball on an iPhone <br> T&uacute tiras una bola de boliche a un iPhone","{""Q0"":4}","trial","58413","survey-likert","55","851411","0.0-5.0-0.42","31","1","2022-11-29 21:24:58","2df368f4e41f066fd1c82c297b4a1108","189.161.152.64","Mozilla/5.0 (Windows NT 10.0; Win64; x64) AppleWebKit/537.36 (KHTML, like Gecko) Chrome/107.0.0.0 Safari/537.36","WebKit","Chrome","107.0.0.0","Windows","10.0","[0]","","13","4",""
"5879","You see how a man is playing with a cat <br> T&uacute ves como un hombre est&aacute jugando con un gato","{""Q0"":4}","trial","58413","survey-likert","56","857294","0.0-5.0-0.43","31","1","2022-11-29 21:24:58","2df368f4e41f066fd1c82c297b4a1108","189.161.152.64","Mozilla/5.0 (Windows NT 10.0; Win64; x64) AppleWebKit/537.36 (KHTML, like Gecko) Chrome/107.0.0.0 Safari/537.36","WebKit","Chrome","107.0.0.0","Windows","10.0","[0]","","67","4",""
"7147","You drop a bowling ball on an egg flan <br> T&uacute tiras una bola de boliche a un flan","{""Q0"":3}","trial","58413","survey-likert","57","864445","0.0-5.0-0.44","31","1","2022-11-29 21:24:58","2df368f4e41f066fd1c82c297b4a1108","189.161.152.64","Mozilla/5.0 (Windows NT 10.0; Win64; x64) AppleWebKit/537.36 (KHTML, like Gecko) Chrome/107.0.0.0 Safari/537.36","WebKit","Chrome","107.0.0.0","Windows","10.0","[0]","","7","3",""
"9765","You drop a cushion on the magazine <br> T&uacute tiras un coj&iacuten a la revista","{""Q0"":4}","trial","58413","survey-likert","58","874215","0.0-5.0-0.45","31","1","2022-11-29 21:24:58","2df368f4e41f066fd1c82c297b4a1108","189.161.152.64","Mozilla/5.0 (Windows NT 10.0; Win64; x64) AppleWebKit/537.36 (KHTML, like Gecko) Chrome/107.0.0.0 Safari/537.36","WebKit","Chrome","107.0.0.0","Windows","10.0","[0]","","38","4",""
"7374","You see how a giraffe is playing with a zebra <br> T&uacute ves como una jirafa est&aacute jugando con una cebra","{""Q0"":4}","trial","58413","survey-likert","59","881593","0.0-5.0-0.46","31","1","2022-11-29 21:24:58","2df368f4e41f066fd1c82c297b4a1108","189.161.152.64","Mozilla/5.0 (Windows NT 10.0; Win64; x64) AppleWebKit/537.36 (KHTML, like Gecko) Chrome/107.0.0.0 Safari/537.36","WebKit","Chrome","107.0.0.0","Windows","10.0","[0]","","65","4",""
"11333","You drop a bowling ball on a chocolate ice-cream <br> T&uacute tiras una bola de boliche a un helado de chocolate","{""Q0"":3}","trial","58413","survey-likert","60","892931","0.0-5.0-0.47","31","1","2022-11-29 21:24:58","2df368f4e41f066fd1c82c297b4a1108","189.161.152.64","Mozilla/5.0 (Windows NT 10.0; Win64; x64) AppleWebKit/537.36 (KHTML, like Gecko) Chrome/107.0.0.0 Safari/537.36","WebKit","Chrome","107.0.0.0","Windows","10.0","[0]","","11","3",""
"5840","You see how a mouse is eating cheese <br> T&uacute ves como el rat&oacuten est&aacute comiendo queso","{""Q0"":4}","trial","58413","survey-likert","61","898776","0.0-5.0-0.48","31","1","2022-11-29 21:24:58","2df368f4e41f066fd1c82c297b4a1108","189.161.152.64","Mozilla/5.0 (Windows NT 10.0; Win64; x64) AppleWebKit/537.36 (KHTML, like Gecko) Chrome/107.0.0.0 Safari/537.36","WebKit","Chrome","107.0.0.0","Windows","10.0","[0]","","56","4",""
"7688","You see how a nurse is taking a syringe <br> T&uacute ves como una enfermera est&aacute agarrando una jeringuilla","{""Q0"":3}","trial","58413","survey-likert","62","906469","0.0-5.0-0.49","31","1","2022-11-29 21:24:58","2df368f4e41f066fd1c82c297b4a1108","189.161.152.64","Mozilla/5.0 (Windows NT 10.0; Win64; x64) AppleWebKit/537.36 (KHTML, like Gecko) Chrome/107.0.0.0 Safari/537.36","WebKit","Chrome","107.0.0.0","Windows","10.0","[0]","","48","3",""
"48518","You see how a police officer is talking on the phone <br> T&uacute ves como un polic&iacutea est&aacute hablando por el tel&eacutefono","{""Q0"":3}","trial","58413","survey-likert","63","954991","0.0-5.0-0.50","31","1","2022-11-29 21:24:58","2df368f4e41f066fd1c82c297b4a1108","189.161.152.64","Mozilla/5.0 (Windows NT 10.0; Win64; x64) AppleWebKit/537.36 (KHTML, like Gecko) Chrome/107.0.0.0 Safari/537.36","WebKit","Chrome","107.0.0.0","Windows","10.0","[0]","","62","3",""
"7690","You drop a bowling ball on an egg <br> T&uacute tiras una bola de boliche a un huevo","{""Q0"":4}","trial","58413","survey-likert","64","962684","0.0-5.0-0.51","31","1","2022-11-29 21:24:58","2df368f4e41f066fd1c82c297b4a1108","189.161.152.64","Mozilla/5.0 (Windows NT 10.0; Win64; x64) AppleWebKit/537.36 (KHTML, like Gecko) Chrome/107.0.0.0 Safari/537.36","WebKit","Chrome","107.0.0.0","Windows","10.0","[0]","","6","4",""
"4502","You drop a ring on the newspaper <br> T&uacute tiras un anillo al peri&oacutedico","{""Q0"":3}","trial","58413","survey-likert","65","967190","0.0-5.0-0.52","31","1","2022-11-29 21:24:58","2df368f4e41f066fd1c82c297b4a1108","189.161.152.64","Mozilla/5.0 (Windows NT 10.0; Win64; x64) AppleWebKit/537.36 (KHTML, like Gecko) Chrome/107.0.0.0 Safari/537.36","WebKit","Chrome","107.0.0.0","Windows","10.0","[0]","","41","3",""
"5909","You see how a woman is paying with a debit card <br> T&uacute ves como una mujer est&aacute pagando con una tarjeta de d&eacutebito","{""Q0"":4}","trial","58413","survey-likert","66","973104","0.0-5.0-0.53","31","1","2022-11-29 21:24:58","2df368f4e41f066fd1c82c297b4a1108","189.161.152.64","Mozilla/5.0 (Windows NT 10.0; Win64; x64) AppleWebKit/537.36 (KHTML, like Gecko) Chrome/107.0.0.0 Safari/537.36","WebKit","Chrome","107.0.0.0","Windows","10.0","[0]","","64","4",""
"5996","You drop a bowling ball on a paper cup <br> T&uacute tiras una bola de boliche a un vaso de papel","{""Q0"":4}","trial","58413","survey-likert","67","979105","0.0-5.0-0.54","31","1","2022-11-29 21:24:58","2df368f4e41f066fd1c82c297b4a1108","189.161.152.64","Mozilla/5.0 (Windows NT 10.0; Win64; x64) AppleWebKit/537.36 (KHTML, like Gecko) Chrome/107.0.0.0 Safari/537.36","WebKit","Chrome","107.0.0.0","Windows","10.0","[0]","","24","4",""
"8200","You see how a woman is taking money out of a wallet <br> T&uacute ves como una mujer est&aacute sacando dinero de su billetera","{""Q0"":4}","trial","58413","survey-likert","68","987310","0.0-5.0-0.55","31","1","2022-11-29 21:24:58","2df368f4e41f066fd1c82c297b4a1108","189.161.152.64","Mozilla/5.0 (Windows NT 10.0; Win64; x64) AppleWebKit/537.36 (KHTML, like Gecko) Chrome/107.0.0.0 Safari/537.36","WebKit","Chrome","107.0.0.0","Windows","10.0","[0]","","44","4",""
"5042","You drop a bowling ball on a light bulb <br> T&uacute tiras una bola de boliche a una bombilla","{""Q0"":4}","trial","58413","survey-likert","69","992356","0.0-5.0-0.56","31","1","2022-11-29 21:24:58","2df368f4e41f066fd1c82c297b4a1108","189.161.152.64","Mozilla/5.0 (Windows NT 10.0; Win64; x64) AppleWebKit/537.36 (KHTML, like Gecko) Chrome/107.0.0.0 Safari/537.36","WebKit","Chrome","107.0.0.0","Windows","10.0","[0]","","14","4",""
"5367","You see how an elephant is eating a watermelon <br> T&uacute ves como un elefante est&aacute comiendo una sand&iacutea","{""Q0"":4}","trial","58413","survey-likert","70","997728","0.0-5.0-0.57","31","1","2022-11-29 21:24:58","2df368f4e41f066fd1c82c297b4a1108","189.161.152.64","Mozilla/5.0 (Windows NT 10.0; Win64; x64) AppleWebKit/537.36 (KHTML, like Gecko) Chrome/107.0.0.0 Safari/537.36","WebKit","Chrome","107.0.0.0","Windows","10.0","[0]","","31","4",""
"6153","You see how a postman is driving a car <br> T&uacute ves como un cartero est&aacute conduciendo un coche","{""Q0"":4}","trial","58413","survey-likert","71","1003886","0.0-5.0-0.58","31","1","2022-11-29 21:24:58","2df368f4e41f066fd1c82c297b4a1108","189.161.152.64","Mozilla/5.0 (Windows NT 10.0; Win64; x64) AppleWebKit/537.36 (KHTML, like Gecko) Chrome/107.0.0.0 Safari/537.36","WebKit","Chrome","107.0.0.0","Windows","10.0","[0]","","32","4",""
"4354","You drop a keyboard on the bed <br> T&uacute tiras un teclado a la cama","{""Q0"":4}","trial","58413","survey-likert","72","1008244","0.0-5.0-0.59","31","1","2022-11-29 21:24:58","2df368f4e41f066fd1c82c297b4a1108","189.161.152.64","Mozilla/5.0 (Windows NT 10.0; Win64; x64) AppleWebKit/537.36 (KHTML, like Gecko) Chrome/107.0.0.0 Safari/537.36","WebKit","Chrome","107.0.0.0","Windows","10.0","[0]","","36","4",""
"6714","You see how a parrot is eating an apple <br> T&uacute ves como un loro est&aacute comiendo una manzana","{""Q0"":4}","trial","58413","survey-likert","73","1014963","0.0-5.0-0.60","31","1","2022-11-29 21:24:58","2df368f4e41f066fd1c82c297b4a1108","189.161.152.64","Mozilla/5.0 (Windows NT 10.0; Win64; x64) AppleWebKit/537.36 (KHTML, like Gecko) Chrome/107.0.0.0 Safari/537.36","WebKit","Chrome","107.0.0.0","Windows","10.0","[0]","","58","4",""
"6291","You drop a bowling ball on a blackberry <br> T&uacute tiras una bola de boliche a una mora","{""Q0"":4}","trial","58413","survey-likert","74","1021258","0.0-5.0-0.61","31","1","2022-11-29 21:24:58","2df368f4e41f066fd1c82c297b4a1108","189.161.152.64","Mozilla/5.0 (Windows NT 10.0; Win64; x64) AppleWebKit/537.36 (KHTML, like Gecko) Chrome/107.0.0.0 Safari/537.36","WebKit","Chrome","107.0.0.0","Windows","10.0","[0]","","8","4",""
"6341","You drop a bowling ball on a mirror <br> T&uacute tiras una bola de boliche a un espejo","{""Q0"":4}","trial","58413","survey-likert","75","1027604","0.0-5.0-0.62","31","1","2022-11-29 21:24:58","2df368f4e41f066fd1c82c297b4a1108","189.161.152.64","Mozilla/5.0 (Windows NT 10.0; Win64; x64) AppleWebKit/537.36 (KHTML, like Gecko) Chrome/107.0.0.0 Safari/537.36","WebKit","Chrome","107.0.0.0","Windows","10.0","[0]","","15","4",""
"6330","You drop a bowling ball on a tomato <br> T&uacute tiras una bola de boliche a un tomate","{""Q0"":3}","trial","58413","survey-likert","76","1033939","0.0-5.0-0.63","31","1","2022-11-29 21:24:58","2df368f4e41f066fd1c82c297b4a1108","189.161.152.64","Mozilla/5.0 (Windows NT 10.0; Win64; x64) AppleWebKit/537.36 (KHTML, like Gecko) Chrome/107.0.0.0 Safari/537.36","WebKit","Chrome","107.0.0.0","Windows","10.0","[0]","","23","3",""
"5572","You drop a bowling ball on a donut <br> T&uacute tiras una bola de boliche a una rosquilla","{""Q0"":4}","trial","58413","survey-likert","77","1039517","0.0-5.0-0.64","31","1","2022-11-29 21:24:58","2df368f4e41f066fd1c82c297b4a1108","189.161.152.64","Mozilla/5.0 (Windows NT 10.0; Win64; x64) AppleWebKit/537.36 (KHTML, like Gecko) Chrome/107.0.0.0 Safari/537.36","WebKit","Chrome","107.0.0.0","Windows","10.0","[0]","","17","4",""
"11692","You drop a needle on the mouse pad <br> T&uacute tiras una aguja a la alfombrilla para el rat&oacuten","{""Q0"":3}","trial","58413","survey-likert","78","1051214","0.0-5.0-0.65","31","1","2022-11-29 21:24:58","2df368f4e41f066fd1c82c297b4a1108","189.161.152.64","Mozilla/5.0 (Windows NT 10.0; Win64; x64) AppleWebKit/537.36 (KHTML, like Gecko) Chrome/107.0.0.0 Safari/537.36","WebKit","Chrome","107.0.0.0","Windows","10.0","[0]","","42","3",""
"5721","You see how a panda is resting on a tree <br> T&uacute ves como un panda est&aacute descansando en un &aacuterbol","{""Q0"":4}","trial","58413","survey-likert","79","1056939","0.0-5.0-0.66","31","1","2022-11-29 21:24:58","2df368f4e41f066fd1c82c297b4a1108","189.161.152.64","Mozilla/5.0 (Windows NT 10.0; Win64; x64) AppleWebKit/537.36 (KHTML, like Gecko) Chrome/107.0.0.0 Safari/537.36","WebKit","Chrome","107.0.0.0","Windows","10.0","[0]","","57","4",""
"7561","You drop a bowling ball on a porcelain figure <br> T&uacute tiras una bola de boliche a una figura de porcelana","{""Q0"":3}","trial","58413","survey-likert","80","1064504","0.0-5.0-0.67","31","1","2022-11-29 21:24:58","2df368f4e41f066fd1c82c297b4a1108","189.161.152.64","Mozilla/5.0 (Windows NT 10.0; Win64; x64) AppleWebKit/537.36 (KHTML, like Gecko) Chrome/107.0.0.0 Safari/537.36","WebKit","Chrome","107.0.0.0","Windows","10.0","[0]","","1","3",""
"7521","You drop a watch on the laptop <br> T&uacute tiras un reloj al port&aacutetil","{""Q0"":2}","trial","58413","survey-likert","81","1072030","0.0-5.0-0.68","31","1","2022-11-29 21:24:58","2df368f4e41f066fd1c82c297b4a1108","189.161.152.64","Mozilla/5.0 (Windows NT 10.0; Win64; x64) AppleWebKit/537.36 (KHTML, like Gecko) Chrome/107.0.0.0 Safari/537.36","WebKit","Chrome","107.0.0.0","Windows","10.0","[0]","","37","2",""
"6645","You see how a boy is peeling a banana <br> T&uacute ves como un ni&ntildeo est&aacute pelando una banana","{""Q0"":4}","trial","58413","survey-likert","82","1078681","0.0-5.0-0.69","31","1","2022-11-29 21:24:58","2df368f4e41f066fd1c82c297b4a1108","189.161.152.64","Mozilla/5.0 (Windows NT 10.0; Win64; x64) AppleWebKit/537.36 (KHTML, like Gecko) Chrome/107.0.0.0 Safari/537.36","WebKit","Chrome","107.0.0.0","Windows","10.0","[0]","","30","4",""
"6193","You drop a bowling ball on a hat <br> T&uacute tiras una bola de boliche a una gorra","{""Q0"":4}","trial","58413","survey-likert","83","1084877","0.0-5.0-0.70","31","1","2022-11-29 21:24:58","2df368f4e41f066fd1c82c297b4a1108","189.161.152.64","Mozilla/5.0 (Windows NT 10.0; Win64; x64) AppleWebKit/537.36 (KHTML, like Gecko) Chrome/107.0.0.0 Safari/537.36","WebKit","Chrome","107.0.0.0","Windows","10.0","[0]","","10","4",""
"5504","You drop a bowling ball on a cracker <br> T&uacute tiras una bola de boliche a una galleta","{""Q0"":4}","trial","58413","survey-likert","84","1090386","0.0-5.0-0.71","31","1","2022-11-29 21:24:58","2df368f4e41f066fd1c82c297b4a1108","189.161.152.64","Mozilla/5.0 (Windows NT 10.0; Win64; x64) AppleWebKit/537.36 (KHTML, like Gecko) Chrome/107.0.0.0 Safari/537.36","WebKit","Chrome","107.0.0.0","Windows","10.0","[0]","","4","4",""
"2986","
    <p style=""font-size:20px;""> You have completed the experiment portion! </p>
    <p style=""font-size:20px;""> Before you are done, we would like you to answer some basic demographic questions. </p>
    <p style=""font-size:20px;""> Note that your answers to these questions will not affect your compensation/credit. </p>
    <p style=""font-size:20px;""> Click the button below to continue.</p>
    ","0","demo","58413","html-button-response","85","1093377","0.0-6.0","31","1","2022-11-29 21:24:58","2df368f4e41f066fd1c82c297b4a1108","189.161.152.64","Mozilla/5.0 (Windows NT 10.0; Win64; x64) AppleWebKit/537.36 (KHTML, like Gecko) Chrome/107.0.0.0 Safari/537.36","WebKit","Chrome","107.0.0.0","Windows","10.0","","","","",""
"22942","","{""Age"":""29"",""Gender"":""female"",""Education"":""15""}","demo","58413","survey-text","86","1116325","0.0-7.0-0.0","31","1","2022-11-29 21:24:58","2df368f4e41f066fd1c82c297b4a1108","189.161.152.64","Mozilla/5.0 (Windows NT 10.0; Win64; x64) AppleWebKit/537.36 (KHTML, like Gecko) Chrome/107.0.0.0 Safari/537.36","WebKit","Chrome","107.0.0.0","Windows","10.0","","","","",""
"12304","","{""Race"":[""Other""]}","demo","58413","survey-multi-select","87","1128634","0.0-7.0-1.0","31","1","2022-11-29 21:24:58","2df368f4e41f066fd1c82c297b4a1108","189.161.152.64","Mozilla/5.0 (Windows NT 10.0; Win64; x64) AppleWebKit/537.36 (KHTML, like Gecko) Chrome/107.0.0.0 Safari/537.36","WebKit","Chrome","107.0.0.0","Windows","10.0","[0]","","","",""
"11455","","{""Latino"":""Yes"",""Alert"":""Afternoon""}","demo","58413","survey-multi-choice","88","1140096","0.0-7.0-2.0","31","1","2022-11-29 21:24:58","2df368f4e41f066fd1c82c297b4a1108","189.161.152.64","Mozilla/5.0 (Windows NT 10.0; Win64; x64) AppleWebKit/537.36 (KHTML, like Gecko) Chrome/107.0.0.0 Safari/537.36","WebKit","Chrome","107.0.0.0","Windows","10.0","[0,1]","","","",""
"7765","","{""Q0"":""all good""}","demo","58413","survey-text","89","1147872","0.0-7.0-3.0","31","1","2022-11-29 21:24:58","2df368f4e41f066fd1c82c297b4a1108","189.161.152.64","Mozilla/5.0 (Windows NT 10.0; Win64; x64) AppleWebKit/537.36 (KHTML, like Gecko) Chrome/107.0.0.0 Safari/537.36","WebKit","Chrome","107.0.0.0","Windows","10.0","","","","",""
"20579","<p>Thank you for participating! </p><strong>Your completion code is: CXEJB7NH. Please copy-paste this code and submit it on Prolific.</strong><p>Click <a href=""https://drive.google.com/file/d/1c70cdHFlc0AaR6RujLWLJwWkv1RbHQJY/view?usp=sharing"" target=""_blank"" rel=""noopener noreferrer"">here</a> to access the debriefing form and know more about our research. <p> Please click the button below to finish the experiment and save your data.</p> <p> IMPORTANT: Please <strong>do not leave this page </strong> without clicking the button below.</p> <p> You may close the tab/window after you click the button below.","0","","","html-button-response","90","1168455","0.0-8.0","31","1","2022-11-29 21:24:58","2df368f4e41f066fd1c82c297b4a1108","189.161.152.64","Mozilla/5.0 (Windows NT 10.0; Win64; x64) AppleWebKit/537.36 (KHTML, like Gecko) Chrome/107.0.0.0 Safari/537.36","WebKit","Chrome","107.0.0.0","Windows","10.0","","","","",""
