"rt","stimulus","response","typeoftrial","subject","trial_type","trial_index","time_elapsed","internal_node_id","run_id","condition","recorded_at","source_code_version","ip","user_agent","device","browser","browser_version","platform","platform_version","question_order","practice_rating","sentence_num","rating","Experiment"
"11602","
        <p style=""font-size:20px;""> Welcome! Thank you for your interest in our study. </p>
        <p style=""font-size:20px;""> This study is being conducted by researchers at Bowdoin College.</p>
        <p style=""font-size:20px;""> In this experiment, you will be asked to rate the accuracy of English and Spanish translations.</p>
        <p style=""font-size:20px;""> The entire experiment should not last more than 20 minutes. You will be paid $3 USD for your participation. </p>
        <p style=""font-size:20px;""> Please click <a href = ""https://drive.google.com/file/d/1L92a02eEKCpaAEipmqDcBCDR7rsarqFE/view?usp=sharing"" target = ""_blank"">here</a> to read the full consent form. </p>
        <p style=""font-size:20px;""> If you agree to participate, please click the button below to continue to experiment instructions.</p>
        ","0","consent","18646","html-button-response","0","11605","0.0-0.0","34","1","2022-11-29 21:25:01","2df368f4e41f066fd1c82c297b4a1108","186.104.235.109","Mozilla/5.0 (Windows NT 10.0; Win64; x64) AppleWebKit/537.36 (KHTML, like Gecko) Chrome/107.0.0.0 Safari/537.36 OPR/93.0.0.0","WebKit","Opera","93.0.0.0","Windows","10.0","","","","",""
"267333","","{""ID"":""607f85f6c1ea0861504ac890""}","ID","18646","survey-text","1","278945","0.0-1.0","34","1","2022-11-29 21:25:01","2df368f4e41f066fd1c82c297b4a1108","186.104.235.109","Mozilla/5.0 (Windows NT 10.0; Win64; x64) AppleWebKit/537.36 (KHTML, like Gecko) Chrome/107.0.0.0 Safari/537.36 OPR/93.0.0.0","WebKit","Opera","93.0.0.0","Windows","10.0","","","","",""
"59841","
        <p style=""font-size:20px;""> You are about to begin the practice test. </p>
        <p style=""font-size:20px;""> On each trial, you will see a sentence in English and its corresponding Spanish translation. </p>
        <p style=""font-size:20px;""> You will rate the accuracy of the translation on a scale from ""Not at all accurate"" to ""Very accurate."" </p>
        <p style=""font-size:20px;""> If you rate the translation as ""Somewhat innaccurate"" or ""Not at all accurate,"" you will be asked to provide your own translation or a reason why the translation is inaccurate. </p>
        <p style=""font-size:20px;""> Click the button below to continue to the practice session.</p>","0","instructions","18646","html-button-response","2","340844","0.0-2.0","34","1","2022-11-29 21:25:01","2df368f4e41f066fd1c82c297b4a1108","186.104.235.109","Mozilla/5.0 (Windows NT 10.0; Win64; x64) AppleWebKit/537.36 (KHTML, like Gecko) Chrome/107.0.0.0 Safari/537.36 OPR/93.0.0.0","WebKit","Opera","93.0.0.0","Windows","10.0","","","","",""
"119757","You see how an artist is running <br> T&uacute ves como un artista est&aacute corriendo","{""Q0"":1}","practice","18646","survey-likert","3","460605","0.0-3.0-0.0","34","1","2022-11-29 21:25:01","2df368f4e41f066fd1c82c297b4a1108","186.104.235.109","Mozilla/5.0 (Windows NT 10.0; Win64; x64) AppleWebKit/537.36 (KHTML, like Gecko) Chrome/107.0.0.0 Safari/537.36 OPR/93.0.0.0","WebKit","Opera","93.0.0.0","Windows","10.0","[0]","1","","",""
"48820","You see how an artist is running <br> T&uacute ves como un artista est&aacute corriendo","{""Q0"":""in this context, running is more accurate to funcionar or \""interpretar\""""}","practice_low_rate","18646","survey-text","4","509443","0.0-3.0-1.0-0.0","34","1","2022-11-29 21:25:01","2df368f4e41f066fd1c82c297b4a1108","186.104.235.109","Mozilla/5.0 (Windows NT 10.0; Win64; x64) AppleWebKit/537.36 (KHTML, like Gecko) Chrome/107.0.0.0 Safari/537.36 OPR/93.0.0.0","WebKit","Opera","93.0.0.0","Windows","10.0","","","3","",""
"21020","You drop a rock on a phone <br> T&uacute tiras una piedra a un tel&eacutefono","{""Q0"":1}","practice","18646","survey-likert","5","530465","0.0-3.0-0.1","34","1","2022-11-29 21:25:01","2df368f4e41f066fd1c82c297b4a1108","186.104.235.109","Mozilla/5.0 (Windows NT 10.0; Win64; x64) AppleWebKit/537.36 (KHTML, like Gecko) Chrome/107.0.0.0 Safari/537.36 OPR/93.0.0.0","WebKit","Opera","93.0.0.0","Windows","10.0","[0]","1","","",""
"20065","You drop a rock on a phone <br> T&uacute tiras una piedra a un tel&eacutefono","{""Q0"":""It would be more accurate \""dejas caer una piedra en el teléfono\""""}","practice_low_rate","18646","survey-text","6","550540","0.0-3.0-1.1-0.1","34","1","2022-11-29 21:25:01","2df368f4e41f066fd1c82c297b4a1108","186.104.235.109","Mozilla/5.0 (Windows NT 10.0; Win64; x64) AppleWebKit/537.36 (KHTML, like Gecko) Chrome/107.0.0.0 Safari/537.36 OPR/93.0.0.0","WebKit","Opera","93.0.0.0","Windows","10.0","","","1","",""
"17219","You drop a bowling ball on a mircrowave <br> T&uacute tiras una bola de boliche a un horno","{""Q0"":0}","practice","18646","survey-likert","7","567761","0.0-3.0-0.2","34","1","2022-11-29 21:25:01","2df368f4e41f066fd1c82c297b4a1108","186.104.235.109","Mozilla/5.0 (Windows NT 10.0; Win64; x64) AppleWebKit/537.36 (KHTML, like Gecko) Chrome/107.0.0.0 Safari/537.36 OPR/93.0.0.0","WebKit","Opera","93.0.0.0","Windows","10.0","[0]","0","","",""
"31605","You drop a bowling ball on a mircrowave <br> T&uacute tiras una bola de boliche a un horno","{""Q0"":""Tú tiras/dejas caer una bola de boliche en el microondas""}","practice_low_rate","18646","survey-text","8","599370","0.0-3.0-1.2-0.2","34","1","2022-11-29 21:25:01","2df368f4e41f066fd1c82c297b4a1108","186.104.235.109","Mozilla/5.0 (Windows NT 10.0; Win64; x64) AppleWebKit/537.36 (KHTML, like Gecko) Chrome/107.0.0.0 Safari/537.36 OPR/93.0.0.0","WebKit","Opera","93.0.0.0","Windows","10.0","","","6","",""
"7137","You see how a duck is playing with a pumpkin <br> T&uacute ves como un pato est&aacute jugando con una calabaza","{""Q0"":4}","practice","18646","survey-likert","9","606509","0.0-3.0-0.3","34","1","2022-11-29 21:25:01","2df368f4e41f066fd1c82c297b4a1108","186.104.235.109","Mozilla/5.0 (Windows NT 10.0; Win64; x64) AppleWebKit/537.36 (KHTML, like Gecko) Chrome/107.0.0.0 Safari/537.36 OPR/93.0.0.0","WebKit","Opera","93.0.0.0","Windows","10.0","[0]","4","","",""
"35327","You see how a tiger is playing with a goose <br> T&uacute ves como un le&oacuten come una pizza","{""Q0"":0}","practice","18646","survey-likert","10","641839","0.0-3.0-0.4","34","1","2022-11-29 21:25:01","2df368f4e41f066fd1c82c297b4a1108","186.104.235.109","Mozilla/5.0 (Windows NT 10.0; Win64; x64) AppleWebKit/537.36 (KHTML, like Gecko) Chrome/107.0.0.0 Safari/537.36 OPR/93.0.0.0","WebKit","Opera","93.0.0.0","Windows","10.0","[0]","0","","",""
"14959","You see how a tiger is playing with a goose <br> T&uacute ves como un le&oacuten come una pizza","{""Q0"":""Tú ves cómo un tigre juega con un ganzo""}","practice_low_rate","18646","survey-text","11","656801","0.0-3.0-1.4-0.4","34","1","2022-11-29 21:25:01","2df368f4e41f066fd1c82c297b4a1108","186.104.235.109","Mozilla/5.0 (Windows NT 10.0; Win64; x64) AppleWebKit/537.36 (KHTML, like Gecko) Chrome/107.0.0.0 Safari/537.36 OPR/93.0.0.0","WebKit","Opera","93.0.0.0","Windows","10.0","","","5","",""
"19837","You see how a teacher is drawing a picture <br> T&uacute ves como un maestro pinta una foto","{""Q0"":1}","practice","18646","survey-likert","12","676640","0.0-3.0-0.5","34","1","2022-11-29 21:25:01","2df368f4e41f066fd1c82c297b4a1108","186.104.235.109","Mozilla/5.0 (Windows NT 10.0; Win64; x64) AppleWebKit/537.36 (KHTML, like Gecko) Chrome/107.0.0.0 Safari/537.36 OPR/93.0.0.0","WebKit","Opera","93.0.0.0","Windows","10.0","[0]","1","","",""
"10368","You see how a teacher is drawing a picture <br> T&uacute ves como un maestro pinta una foto","{""Q0"":""Tú ves como un maestro hace un dibujo""}","practice_low_rate","18646","survey-text","13","687012","0.0-3.0-1.5-0.5","34","1","2022-11-29 21:25:01","2df368f4e41f066fd1c82c297b4a1108","186.104.235.109","Mozilla/5.0 (Windows NT 10.0; Win64; x64) AppleWebKit/537.36 (KHTML, like Gecko) Chrome/107.0.0.0 Safari/537.36 OPR/93.0.0.0","WebKit","Opera","93.0.0.0","Windows","10.0","","","4","",""
"2351","<p style=""font-size:20px;"">You have now completed the practice session! </p>
        <p style=""font-size:20px;"">You will now move on to the main experiment. </p>
        <p style=""font-size:20px;"">Please click the button below to continue. </p>","0","movetoexp","18646","html-button-response","14","689364","0.0-4.0","34","1","2022-11-29 21:25:01","2df368f4e41f066fd1c82c297b4a1108","186.104.235.109","Mozilla/5.0 (Windows NT 10.0; Win64; x64) AppleWebKit/537.36 (KHTML, like Gecko) Chrome/107.0.0.0 Safari/537.36 OPR/93.0.0.0","WebKit","Opera","93.0.0.0","Windows","10.0","","","","",""
"5433","You see how a parrot is eating an apple <br> T&uacute ves como un loro est&aacute comiendo una manzana","{""Q0"":4}","trial","18646","survey-likert","15","694798","0.0-5.0-0.0","34","1","2022-11-29 21:25:01","2df368f4e41f066fd1c82c297b4a1108","186.104.235.109","Mozilla/5.0 (Windows NT 10.0; Win64; x64) AppleWebKit/537.36 (KHTML, like Gecko) Chrome/107.0.0.0 Safari/537.36 OPR/93.0.0.0","WebKit","Opera","93.0.0.0","Windows","10.0","[0]","","58","4",""
"7063","You drop a bowling ball on an egg flan <br> T&uacute tiras una bola de boliche a un flan","{""Q0"":3}","trial","18646","survey-likert","16","701864","0.0-5.0-0.1","34","1","2022-11-29 21:25:01","2df368f4e41f066fd1c82c297b4a1108","186.104.235.109","Mozilla/5.0 (Windows NT 10.0; Win64; x64) AppleWebKit/537.36 (KHTML, like Gecko) Chrome/107.0.0.0 Safari/537.36 OPR/93.0.0.0","WebKit","Opera","93.0.0.0","Windows","10.0","[0]","","7","3",""
"5425","You see how an astronaut is putting on a space suit <br> T&uacute ves como un astronauta se est&aacute poniendo su traje espacial","{""Q0"":4}","trial","18646","survey-likert","17","707293","0.0-5.0-0.2","34","1","2022-11-29 21:25:01","2df368f4e41f066fd1c82c297b4a1108","186.104.235.109","Mozilla/5.0 (Windows NT 10.0; Win64; x64) AppleWebKit/537.36 (KHTML, like Gecko) Chrome/107.0.0.0 Safari/537.36 OPR/93.0.0.0","WebKit","Opera","93.0.0.0","Windows","10.0","[0]","","33","4",""
"5447","You see how a thief is stealing a wallet <br> T&uacute ves como un ladr&oacuten est&aacute robando una billetera","{""Q0"":4}","trial","18646","survey-likert","18","712742","0.0-5.0-0.3","34","1","2022-11-29 21:25:01","2df368f4e41f066fd1c82c297b4a1108","186.104.235.109","Mozilla/5.0 (Windows NT 10.0; Win64; x64) AppleWebKit/537.36 (KHTML, like Gecko) Chrome/107.0.0.0 Safari/537.36 OPR/93.0.0.0","WebKit","Opera","93.0.0.0","Windows","10.0","[0]","","68","4",""
"7991","You drop a bowling ball on a wine glass <br> T&uacute tiras una bola de boliche a una copa de vino","{""Q0"":4}","trial","18646","survey-likert","19","720736","0.0-5.0-0.4","34","1","2022-11-29 21:25:01","2df368f4e41f066fd1c82c297b4a1108","186.104.235.109","Mozilla/5.0 (Windows NT 10.0; Win64; x64) AppleWebKit/537.36 (KHTML, like Gecko) Chrome/107.0.0.0 Safari/537.36 OPR/93.0.0.0","WebKit","Opera","93.0.0.0","Windows","10.0","[0]","","5","4",""
"6163","You see how a man is shaving his beard <br> T&uacute ves como un hombre se est&aacute afeitando la barba","{""Q0"":4}","trial","18646","survey-likert","20","726903","0.0-5.0-0.5","34","1","2022-11-29 21:25:01","2df368f4e41f066fd1c82c297b4a1108","186.104.235.109","Mozilla/5.0 (Windows NT 10.0; Win64; x64) AppleWebKit/537.36 (KHTML, like Gecko) Chrome/107.0.0.0 Safari/537.36 OPR/93.0.0.0","WebKit","Opera","93.0.0.0","Windows","10.0","[0]","","43","4",""
"7371","You see how a mouse is eating cheese <br> T&uacute ves como el rat&oacuten est&aacute comiendo queso","{""Q0"":4}","trial","18646","survey-likert","21","734276","0.0-5.0-0.6","34","1","2022-11-29 21:25:01","2df368f4e41f066fd1c82c297b4a1108","186.104.235.109","Mozilla/5.0 (Windows NT 10.0; Win64; x64) AppleWebKit/537.36 (KHTML, like Gecko) Chrome/107.0.0.0 Safari/537.36 OPR/93.0.0.0","WebKit","Opera","93.0.0.0","Windows","10.0","[0]","","56","4",""
"7035","You see how a woman is taking money out of a wallet <br> T&uacute ves como una mujer est&aacute sacando dinero de su billetera","{""Q0"":4}","trial","18646","survey-likert","22","741315","0.0-5.0-0.7","34","1","2022-11-29 21:25:01","2df368f4e41f066fd1c82c297b4a1108","186.104.235.109","Mozilla/5.0 (Windows NT 10.0; Win64; x64) AppleWebKit/537.36 (KHTML, like Gecko) Chrome/107.0.0.0 Safari/537.36 OPR/93.0.0.0","WebKit","Opera","93.0.0.0","Windows","10.0","[0]","","44","4",""
"5831","You see how a cat is drinking water from a bowl <br> T&uacute ves como un gato est&aacute bebiendo agua de un cuenco","{""Q0"":4}","trial","18646","survey-likert","23","747149","0.0-5.0-0.8","34","1","2022-11-29 21:25:01","2df368f4e41f066fd1c82c297b4a1108","186.104.235.109","Mozilla/5.0 (Windows NT 10.0; Win64; x64) AppleWebKit/537.36 (KHTML, like Gecko) Chrome/107.0.0.0 Safari/537.36 OPR/93.0.0.0","WebKit","Opera","93.0.0.0","Windows","10.0","[0]","","28","4",""
"7355","You see how an owl is sitting on the branch <br> T&uacute ves como un b&uacuteho est&aacute reposando en una rama","{""Q0"":3}","trial","18646","survey-likert","24","754507","0.0-5.0-0.9","34","1","2022-11-29 21:25:01","2df368f4e41f066fd1c82c297b4a1108","186.104.235.109","Mozilla/5.0 (Windows NT 10.0; Win64; x64) AppleWebKit/537.36 (KHTML, like Gecko) Chrome/107.0.0.0 Safari/537.36 OPR/93.0.0.0","WebKit","Opera","93.0.0.0","Windows","10.0","[0]","","69","3",""
"6535","You see how an old man is hammering a nail <br> T&uacute ves como un hombre anciano est&aacute martillando un clavo","{""Q0"":4}","trial","18646","survey-likert","25","761045","0.0-5.0-0.10","34","1","2022-11-29 21:25:01","2df368f4e41f066fd1c82c297b4a1108","186.104.235.109","Mozilla/5.0 (Windows NT 10.0; Win64; x64) AppleWebKit/537.36 (KHTML, like Gecko) Chrome/107.0.0.0 Safari/537.36 OPR/93.0.0.0","WebKit","Opera","93.0.0.0","Windows","10.0","[0]","","29","4",""
"7031","You drop a bowling ball on a hat <br> T&uacute tiras una bola de boliche a una gorra","{""Q0"":4}","trial","18646","survey-likert","26","768079","0.0-5.0-0.11","34","1","2022-11-29 21:25:01","2df368f4e41f066fd1c82c297b4a1108","186.104.235.109","Mozilla/5.0 (Windows NT 10.0; Win64; x64) AppleWebKit/537.36 (KHTML, like Gecko) Chrome/107.0.0.0 Safari/537.36 OPR/93.0.0.0","WebKit","Opera","93.0.0.0","Windows","10.0","[0]","","10","4",""
"5298","You see how a man is boiling potatoes <br> T&uacute ves a un hombre est&aacute hirviendo papas","{""Q0"":4}","trial","18646","survey-likert","27","773381","0.0-5.0-0.12","34","1","2022-11-29 21:25:01","2df368f4e41f066fd1c82c297b4a1108","186.104.235.109","Mozilla/5.0 (Windows NT 10.0; Win64; x64) AppleWebKit/537.36 (KHTML, like Gecko) Chrome/107.0.0.0 Safari/537.36 OPR/93.0.0.0","WebKit","Opera","93.0.0.0","Windows","10.0","[0]","","46","4",""
"4253","You see how a photographer is taking a photo of a lion <br> T&uacute ves como un fot&oacutegrafo est&aacute tomando una foto de un le&oacuten","{""Q0"":4}","trial","18646","survey-likert","28","777637","0.0-5.0-0.13","34","1","2022-11-29 21:25:01","2df368f4e41f066fd1c82c297b4a1108","186.104.235.109","Mozilla/5.0 (Windows NT 10.0; Win64; x64) AppleWebKit/537.36 (KHTML, like Gecko) Chrome/107.0.0.0 Safari/537.36 OPR/93.0.0.0","WebKit","Opera","93.0.0.0","Windows","10.0","[0]","","72","4",""
"6799","You drop a ring on the newspaper <br> T&uacute tiras un anillo al peri&oacutedico","{""Q0"":3}","trial","18646","survey-likert","29","784438","0.0-5.0-0.14","34","1","2022-11-29 21:25:01","2df368f4e41f066fd1c82c297b4a1108","186.104.235.109","Mozilla/5.0 (Windows NT 10.0; Win64; x64) AppleWebKit/537.36 (KHTML, like Gecko) Chrome/107.0.0.0 Safari/537.36 OPR/93.0.0.0","WebKit","Opera","93.0.0.0","Windows","10.0","[0]","","41","3",""
"28835","You drop a bowling ball on a blackberry <br> T&uacute tiras una bola de boliche a una mora","{""Q0"":2}","trial","18646","survey-likert","30","813276","0.0-5.0-0.15","34","1","2022-11-29 21:25:01","2df368f4e41f066fd1c82c297b4a1108","186.104.235.109","Mozilla/5.0 (Windows NT 10.0; Win64; x64) AppleWebKit/537.36 (KHTML, like Gecko) Chrome/107.0.0.0 Safari/537.36 OPR/93.0.0.0","WebKit","Opera","93.0.0.0","Windows","10.0","[0]","","8","2",""
"4685","You see how a donkey is drinking water <br> T&uacute ves como un burro est&aacute bebiendo agua","{""Q0"":4}","trial","18646","survey-likert","31","817964","0.0-5.0-0.16","34","1","2022-11-29 21:25:01","2df368f4e41f066fd1c82c297b4a1108","186.104.235.109","Mozilla/5.0 (Windows NT 10.0; Win64; x64) AppleWebKit/537.36 (KHTML, like Gecko) Chrome/107.0.0.0 Safari/537.36 OPR/93.0.0.0","WebKit","Opera","93.0.0.0","Windows","10.0","[0]","","45","4",""
"5603","You drop a bowling ball on a donut <br> T&uacute tiras una bola de boliche a una rosquilla","{""Q0"":4}","trial","18646","survey-likert","32","823570","0.0-5.0-0.17","34","1","2022-11-29 21:25:01","2df368f4e41f066fd1c82c297b4a1108","186.104.235.109","Mozilla/5.0 (Windows NT 10.0; Win64; x64) AppleWebKit/537.36 (KHTML, like Gecko) Chrome/107.0.0.0 Safari/537.36 OPR/93.0.0.0","WebKit","Opera","93.0.0.0","Windows","10.0","[0]","","17","4",""
"1997","You drop a bowling ball on a strawberry <br> T&uacute tiras una bola de boliche a una fresa","{""Q0"":4}","trial","18646","survey-likert","33","825570","0.0-5.0-0.18","34","1","2022-11-29 21:25:01","2df368f4e41f066fd1c82c297b4a1108","186.104.235.109","Mozilla/5.0 (Windows NT 10.0; Win64; x64) AppleWebKit/537.36 (KHTML, like Gecko) Chrome/107.0.0.0 Safari/537.36 OPR/93.0.0.0","WebKit","Opera","93.0.0.0","Windows","10.0","[0]","","20","4",""
"2639","You drop a towel on the TV <br> T&uacute tiras una toalla a la televisi&oacuten","{""Q0"":4}","trial","18646","survey-likert","34","828212","0.0-5.0-0.19","34","1","2022-11-29 21:25:01","2df368f4e41f066fd1c82c297b4a1108","186.104.235.109","Mozilla/5.0 (Windows NT 10.0; Win64; x64) AppleWebKit/537.36 (KHTML, like Gecko) Chrome/107.0.0.0 Safari/537.36 OPR/93.0.0.0","WebKit","Opera","93.0.0.0","Windows","10.0","[0]","","53","4",""
"7423","You drop a bowling ball on an egg <br> T&uacute tiras una bola de boliche a un huevo","{""Q0"":4}","trial","18646","survey-likert","35","835638","0.0-5.0-0.20","34","1","2022-11-29 21:25:01","2df368f4e41f066fd1c82c297b4a1108","186.104.235.109","Mozilla/5.0 (Windows NT 10.0; Win64; x64) AppleWebKit/537.36 (KHTML, like Gecko) Chrome/107.0.0.0 Safari/537.36 OPR/93.0.0.0","WebKit","Opera","93.0.0.0","Windows","10.0","[0]","","6","4",""
"5161","You drop a bowling ball on a chocolate ice-cream <br> T&uacute tiras una bola de boliche a un helado de chocolate","{""Q0"":4}","trial","18646","survey-likert","36","840802","0.0-5.0-0.21","34","1","2022-11-29 21:25:01","2df368f4e41f066fd1c82c297b4a1108","186.104.235.109","Mozilla/5.0 (Windows NT 10.0; Win64; x64) AppleWebKit/537.36 (KHTML, like Gecko) Chrome/107.0.0.0 Safari/537.36 OPR/93.0.0.0","WebKit","Opera","93.0.0.0","Windows","10.0","[0]","","11","4",""
"3322","You see how a postman is driving a car <br> T&uacute ves como un cartero est&aacute conduciendo un coche","{""Q0"":4}","trial","18646","survey-likert","37","844128","0.0-5.0-0.22","34","1","2022-11-29 21:25:01","2df368f4e41f066fd1c82c297b4a1108","186.104.235.109","Mozilla/5.0 (Windows NT 10.0; Win64; x64) AppleWebKit/537.36 (KHTML, like Gecko) Chrome/107.0.0.0 Safari/537.36 OPR/93.0.0.0","WebKit","Opera","93.0.0.0","Windows","10.0","[0]","","32","4",""
"6315","You see how a man is playing with a cat <br> T&uacute ves como un hombre est&aacute jugando con un gato","{""Q0"":4}","trial","18646","survey-likert","38","850446","0.0-5.0-0.23","34","1","2022-11-29 21:25:01","2df368f4e41f066fd1c82c297b4a1108","186.104.235.109","Mozilla/5.0 (Windows NT 10.0; Win64; x64) AppleWebKit/537.36 (KHTML, like Gecko) Chrome/107.0.0.0 Safari/537.36 OPR/93.0.0.0","WebKit","Opera","93.0.0.0","Windows","10.0","[0]","","67","4",""
"3745","You drop a bowling ball on a piece of sushi <br> T&uacute tiras una bola de boliche a un pedazo de sushi","{""Q0"":3}","trial","18646","survey-likert","39","854194","0.0-5.0-0.24","34","1","2022-11-29 21:25:01","2df368f4e41f066fd1c82c297b4a1108","186.104.235.109","Mozilla/5.0 (Windows NT 10.0; Win64; x64) AppleWebKit/537.36 (KHTML, like Gecko) Chrome/107.0.0.0 Safari/537.36 OPR/93.0.0.0","WebKit","Opera","93.0.0.0","Windows","10.0","[0]","","21","3",""
"3159","You drop a bowling ball on a rice cake <br> T&uacute tiras una bola de boliche a una tortita de arroz","{""Q0"":3}","trial","18646","survey-likert","40","857356","0.0-5.0-0.25","34","1","2022-11-29 21:25:01","2df368f4e41f066fd1c82c297b4a1108","186.104.235.109","Mozilla/5.0 (Windows NT 10.0; Win64; x64) AppleWebKit/537.36 (KHTML, like Gecko) Chrome/107.0.0.0 Safari/537.36 OPR/93.0.0.0","WebKit","Opera","93.0.0.0","Windows","10.0","[0]","","18","3",""
"7799","You drop a needle on the mouse pad <br> T&uacute tiras una aguja a la alfombrilla para el rat&oacuten","{""Q0"":4}","trial","18646","survey-likert","41","865158","0.0-5.0-0.26","34","1","2022-11-29 21:25:01","2df368f4e41f066fd1c82c297b4a1108","186.104.235.109","Mozilla/5.0 (Windows NT 10.0; Win64; x64) AppleWebKit/537.36 (KHTML, like Gecko) Chrome/107.0.0.0 Safari/537.36 OPR/93.0.0.0","WebKit","Opera","93.0.0.0","Windows","10.0","[0]","","42","4",""
"4855","You see how a giraffe is playing with a zebra <br> T&uacute ves como una jirafa est&aacute jugando con una cebra","{""Q0"":4}","trial","18646","survey-likert","42","870016","0.0-5.0-0.27","34","1","2022-11-29 21:25:01","2df368f4e41f066fd1c82c297b4a1108","186.104.235.109","Mozilla/5.0 (Windows NT 10.0; Win64; x64) AppleWebKit/537.36 (KHTML, like Gecko) Chrome/107.0.0.0 Safari/537.36 OPR/93.0.0.0","WebKit","Opera","93.0.0.0","Windows","10.0","[0]","","65","4",""
"9023","You see how an actress is taking a microphone <br> T&uacute ves como una actriz est&aacute agarrando el micr&oacutefono","{""Q0"":3}","trial","18646","survey-likert","43","879042","0.0-5.0-0.28","34","1","2022-11-29 21:25:01","2df368f4e41f066fd1c82c297b4a1108","186.104.235.109","Mozilla/5.0 (Windows NT 10.0; Win64; x64) AppleWebKit/537.36 (KHTML, like Gecko) Chrome/107.0.0.0 Safari/537.36 OPR/93.0.0.0","WebKit","Opera","93.0.0.0","Windows","10.0","[0]","","51","3",""
"4465","You see how a pilot is reading a book <br> T&uacute ves como un piloto est&aacute leyendo un libro","{""Q0"":4}","trial","18646","survey-likert","44","883510","0.0-5.0-0.29","34","1","2022-11-29 21:25:01","2df368f4e41f066fd1c82c297b4a1108","186.104.235.109","Mozilla/5.0 (Windows NT 10.0; Win64; x64) AppleWebKit/537.36 (KHTML, like Gecko) Chrome/107.0.0.0 Safari/537.36 OPR/93.0.0.0","WebKit","Opera","93.0.0.0","Windows","10.0","[0]","","61","4",""
"7521","You see how a hairdresser is taking scissors <br> T&uacute ves como una peluquera est&aacute agarrando las tijeras","{""Q0"":4}","trial","18646","survey-likert","45","891034","0.0-5.0-0.30","34","1","2022-11-29 21:25:01","2df368f4e41f066fd1c82c297b4a1108","186.104.235.109","Mozilla/5.0 (Windows NT 10.0; Win64; x64) AppleWebKit/537.36 (KHTML, like Gecko) Chrome/107.0.0.0 Safari/537.36 OPR/93.0.0.0","WebKit","Opera","93.0.0.0","Windows","10.0","[0]","","60","4",""
"6627","You drop a bowling ball on an iPhone <br> T&uacute tiras una bola de boliche a un iPhone","{""Q0"":4}","trial","18646","survey-likert","46","897664","0.0-5.0-0.31","34","1","2022-11-29 21:25:01","2df368f4e41f066fd1c82c297b4a1108","186.104.235.109","Mozilla/5.0 (Windows NT 10.0; Win64; x64) AppleWebKit/537.36 (KHTML, like Gecko) Chrome/107.0.0.0 Safari/537.36 OPR/93.0.0.0","WebKit","Opera","93.0.0.0","Windows","10.0","[0]","","13","4",""
"4197","You drop a bowling ball on glasses <br> T&uacute tiras una bola de boliche a unas gafas","{""Q0"":4}","trial","18646","survey-likert","47","901864","0.0-5.0-0.32","34","1","2022-11-29 21:25:01","2df368f4e41f066fd1c82c297b4a1108","186.104.235.109","Mozilla/5.0 (Windows NT 10.0; Win64; x64) AppleWebKit/537.36 (KHTML, like Gecko) Chrome/107.0.0.0 Safari/537.36 OPR/93.0.0.0","WebKit","Opera","93.0.0.0","Windows","10.0","[0]","","9","4",""
"6007","You see how a police officer is talking on the phone <br> T&uacute ves como un polic&iacutea est&aacute hablando por el tel&eacutefono","{""Q0"":4}","trial","18646","survey-likert","48","907874","0.0-5.0-0.33","34","1","2022-11-29 21:25:01","2df368f4e41f066fd1c82c297b4a1108","186.104.235.109","Mozilla/5.0 (Windows NT 10.0; Win64; x64) AppleWebKit/537.36 (KHTML, like Gecko) Chrome/107.0.0.0 Safari/537.36 OPR/93.0.0.0","WebKit","Opera","93.0.0.0","Windows","10.0","[0]","","62","4",""
"3424","You drop a toothbrush on the sponge <br> T&uacute tiras un cepillo de dientes en la esponja","{""Q0"":4}","trial","18646","survey-likert","49","911302","0.0-5.0-0.34","34","1","2022-11-29 21:25:01","2df368f4e41f066fd1c82c297b4a1108","186.104.235.109","Mozilla/5.0 (Windows NT 10.0; Win64; x64) AppleWebKit/537.36 (KHTML, like Gecko) Chrome/107.0.0.0 Safari/537.36 OPR/93.0.0.0","WebKit","Opera","93.0.0.0","Windows","10.0","[0]","","25","4",""
"4351","You drop a bowling ball on a tomato <br> T&uacute tiras una bola de boliche a un tomate","{""Q0"":4}","trial","18646","survey-likert","50","915656","0.0-5.0-0.35","34","1","2022-11-29 21:25:01","2df368f4e41f066fd1c82c297b4a1108","186.104.235.109","Mozilla/5.0 (Windows NT 10.0; Win64; x64) AppleWebKit/537.36 (KHTML, like Gecko) Chrome/107.0.0.0 Safari/537.36 OPR/93.0.0.0","WebKit","Opera","93.0.0.0","Windows","10.0","[0]","","23","4",""
"20166","You drop a watch on the laptop <br> T&uacute tiras un reloj al port&aacutetil","{""Q0"":4}","trial","18646","survey-likert","51","935826","0.0-5.0-0.36","34","1","2022-11-29 21:25:01","2df368f4e41f066fd1c82c297b4a1108","186.104.235.109","Mozilla/5.0 (Windows NT 10.0; Win64; x64) AppleWebKit/537.36 (KHTML, like Gecko) Chrome/107.0.0.0 Safari/537.36 OPR/93.0.0.0","WebKit","Opera","93.0.0.0","Windows","10.0","[0]","","37","4",""
"4770","You drop a bowling ball on a light bulb <br> T&uacute tiras una bola de boliche a una bombilla","{""Q0"":4}","trial","18646","survey-likert","52","940600","0.0-5.0-0.37","34","1","2022-11-29 21:25:01","2df368f4e41f066fd1c82c297b4a1108","186.104.235.109","Mozilla/5.0 (Windows NT 10.0; Win64; x64) AppleWebKit/537.36 (KHTML, like Gecko) Chrome/107.0.0.0 Safari/537.36 OPR/93.0.0.0","WebKit","Opera","93.0.0.0","Windows","10.0","[0]","","14","4",""
"3131","You drop a keyboard on the bed <br> T&uacute tiras un teclado a la cama","{""Q0"":4}","trial","18646","survey-likert","53","943736","0.0-5.0-0.38","34","1","2022-11-29 21:25:01","2df368f4e41f066fd1c82c297b4a1108","186.104.235.109","Mozilla/5.0 (Windows NT 10.0; Win64; x64) AppleWebKit/537.36 (KHTML, like Gecko) Chrome/107.0.0.0 Safari/537.36 OPR/93.0.0.0","WebKit","Opera","93.0.0.0","Windows","10.0","[0]","","36","4",""
"3064","You drop a bowling ball on a cracker <br> T&uacute tiras una bola de boliche a una galleta","{""Q0"":4}","trial","18646","survey-likert","54","946804","0.0-5.0-0.39","34","1","2022-11-29 21:25:01","2df368f4e41f066fd1c82c297b4a1108","186.104.235.109","Mozilla/5.0 (Windows NT 10.0; Win64; x64) AppleWebKit/537.36 (KHTML, like Gecko) Chrome/107.0.0.0 Safari/537.36 OPR/93.0.0.0","WebKit","Opera","93.0.0.0","Windows","10.0","[0]","","4","4",""
"3947","You see how a horse is chewing hay <br> T&uacute ves como un caballo est&aacute masticando el heno","{""Q0"":4}","trial","18646","survey-likert","55","950754","0.0-5.0-0.40","34","1","2022-11-29 21:25:01","2df368f4e41f066fd1c82c297b4a1108","186.104.235.109","Mozilla/5.0 (Windows NT 10.0; Win64; x64) AppleWebKit/537.36 (KHTML, like Gecko) Chrome/107.0.0.0 Safari/537.36 OPR/93.0.0.0","WebKit","Opera","93.0.0.0","Windows","10.0","[0]","","55","4",""
"4290","You see how a boy is peeling a banana <br> T&uacute ves como un ni&ntildeo est&aacute pelando una banana","{""Q0"":4}","trial","18646","survey-likert","56","955048","0.0-5.0-0.41","34","1","2022-11-29 21:25:01","2df368f4e41f066fd1c82c297b4a1108","186.104.235.109","Mozilla/5.0 (Windows NT 10.0; Win64; x64) AppleWebKit/537.36 (KHTML, like Gecko) Chrome/107.0.0.0 Safari/537.36 OPR/93.0.0.0","WebKit","Opera","93.0.0.0","Windows","10.0","[0]","","30","4",""
"3564","You see how a puppy is playing with a ball <br> T&uacute ves como un cachorro est&aacute jugando con una pelota","{""Q0"":4}","trial","18646","survey-likert","57","958616","0.0-5.0-0.42","34","1","2022-11-29 21:25:01","2df368f4e41f066fd1c82c297b4a1108","186.104.235.109","Mozilla/5.0 (Windows NT 10.0; Win64; x64) AppleWebKit/537.36 (KHTML, like Gecko) Chrome/107.0.0.0 Safari/537.36 OPR/93.0.0.0","WebKit","Opera","93.0.0.0","Windows","10.0","[0]","","34","4",""
"2778","You drop a bowling ball on a tile <br> T&uacute tiras una bola de boliche a una baldosa","{""Q0"":4}","trial","18646","survey-likert","58","961398","0.0-5.0-0.43","34","1","2022-11-29 21:25:01","2df368f4e41f066fd1c82c297b4a1108","186.104.235.109","Mozilla/5.0 (Windows NT 10.0; Win64; x64) AppleWebKit/537.36 (KHTML, like Gecko) Chrome/107.0.0.0 Safari/537.36 OPR/93.0.0.0","WebKit","Opera","93.0.0.0","Windows","10.0","[0]","","22","4",""
"3917","You drop a bowling ball on a chocolate muffin <br> T&uacute tiras una bola de boliche a una magdalena de chocolate","{""Q0"":4}","trial","18646","survey-likert","59","965318","0.0-5.0-0.44","34","1","2022-11-29 21:25:01","2df368f4e41f066fd1c82c297b4a1108","186.104.235.109","Mozilla/5.0 (Windows NT 10.0; Win64; x64) AppleWebKit/537.36 (KHTML, like Gecko) Chrome/107.0.0.0 Safari/537.36 OPR/93.0.0.0","WebKit","Opera","93.0.0.0","Windows","10.0","[0]","","16","4",""
"5535","You drop a bowling ball on an iPAD <br> T&uacute tiras una bola de boliche a un iPad","{""Q0"":4}","trial","18646","survey-likert","60","970856","0.0-5.0-0.45","34","1","2022-11-29 21:25:01","2df368f4e41f066fd1c82c297b4a1108","186.104.235.109","Mozilla/5.0 (Windows NT 10.0; Win64; x64) AppleWebKit/537.36 (KHTML, like Gecko) Chrome/107.0.0.0 Safari/537.36 OPR/93.0.0.0","WebKit","Opera","93.0.0.0","Windows","10.0","[0]","","12","4",""
"5155","You see how a musician is playing a guitar <br> T&uacute ves como un m&uacutesico est&aacute tocando la guitarra","{""Q0"":4}","trial","18646","survey-likert","61","976014","0.0-5.0-0.46","34","1","2022-11-29 21:25:01","2df368f4e41f066fd1c82c297b4a1108","186.104.235.109","Mozilla/5.0 (Windows NT 10.0; Win64; x64) AppleWebKit/537.36 (KHTML, like Gecko) Chrome/107.0.0.0 Safari/537.36 OPR/93.0.0.0","WebKit","Opera","93.0.0.0","Windows","10.0","[0]","","27","4",""
"4620","You drop a bowling ball on a porcelain figure <br> T&uacute tiras una bola de boliche a una figura de porcelana","{""Q0"":4}","trial","18646","survey-likert","62","980638","0.0-5.0-0.47","34","1","2022-11-29 21:25:01","2df368f4e41f066fd1c82c297b4a1108","186.104.235.109","Mozilla/5.0 (Windows NT 10.0; Win64; x64) AppleWebKit/537.36 (KHTML, like Gecko) Chrome/107.0.0.0 Safari/537.36 OPR/93.0.0.0","WebKit","Opera","93.0.0.0","Windows","10.0","[0]","","1","4",""
"3806","You see how a panda is resting on a tree <br> T&uacute ves como un panda est&aacute descansando en un &aacuterbol","{""Q0"":4}","trial","18646","survey-likert","63","984448","0.0-5.0-0.48","34","1","2022-11-29 21:25:01","2df368f4e41f066fd1c82c297b4a1108","186.104.235.109","Mozilla/5.0 (Windows NT 10.0; Win64; x64) AppleWebKit/537.36 (KHTML, like Gecko) Chrome/107.0.0.0 Safari/537.36 OPR/93.0.0.0","WebKit","Opera","93.0.0.0","Windows","10.0","[0]","","57","4",""
"2392","You see how an elephant is eating a watermelon <br> T&uacute ves como un elefante est&aacute comiendo una sand&iacutea","{""Q0"":4}","trial","18646","survey-likert","64","986844","0.0-5.0-0.49","34","1","2022-11-29 21:25:01","2df368f4e41f066fd1c82c297b4a1108","186.104.235.109","Mozilla/5.0 (Windows NT 10.0; Win64; x64) AppleWebKit/537.36 (KHTML, like Gecko) Chrome/107.0.0.0 Safari/537.36 OPR/93.0.0.0","WebKit","Opera","93.0.0.0","Windows","10.0","[0]","","31","4",""
"4602","You drop a fork on the plate <br> T&uacute tiras un tenedor al plato","{""Q0"":4}","trial","18646","survey-likert","65","991450","0.0-5.0-0.50","34","1","2022-11-29 21:25:01","2df368f4e41f066fd1c82c297b4a1108","186.104.235.109","Mozilla/5.0 (Windows NT 10.0; Win64; x64) AppleWebKit/537.36 (KHTML, like Gecko) Chrome/107.0.0.0 Safari/537.36 OPR/93.0.0.0","WebKit","Opera","93.0.0.0","Windows","10.0","[0]","","26","4",""
"4115","You see how a woman is paying with a debit card <br> T&uacute ves como una mujer est&aacute pagando con una tarjeta de d&eacutebito","{""Q0"":4}","trial","18646","survey-likert","66","995570","0.0-5.0-0.51","34","1","2022-11-29 21:25:01","2df368f4e41f066fd1c82c297b4a1108","186.104.235.109","Mozilla/5.0 (Windows NT 10.0; Win64; x64) AppleWebKit/537.36 (KHTML, like Gecko) Chrome/107.0.0.0 Safari/537.36 OPR/93.0.0.0","WebKit","Opera","93.0.0.0","Windows","10.0","[0]","","64","4",""
"4154","You see how a dentist is drinking a can of cola <br> T&uacute ves como un dentista est&aacute bebiendo una lata de cola","{""Q0"":4}","trial","18646","survey-likert","67","999728","0.0-5.0-0.52","34","1","2022-11-29 21:25:01","2df368f4e41f066fd1c82c297b4a1108","186.104.235.109","Mozilla/5.0 (Windows NT 10.0; Win64; x64) AppleWebKit/537.36 (KHTML, like Gecko) Chrome/107.0.0.0 Safari/537.36 OPR/93.0.0.0","WebKit","Opera","93.0.0.0","Windows","10.0","[0]","","47","4",""
"4734","You drop a bowling ball on a piece of cake <br> T&uacute tiras una bola de boliche a un trozo de pastel","{""Q0"":4}","trial","18646","survey-likert","68","1004466","0.0-5.0-0.53","34","1","2022-11-29 21:25:01","2df368f4e41f066fd1c82c297b4a1108","186.104.235.109","Mozilla/5.0 (Windows NT 10.0; Win64; x64) AppleWebKit/537.36 (KHTML, like Gecko) Chrome/107.0.0.0 Safari/537.36 OPR/93.0.0.0","WebKit","Opera","93.0.0.0","Windows","10.0","[0]","","2","4",""
"8250","You drop a bowling ball on a mirror <br> T&uacute tiras una bola de boliche a un espejo","{""Q0"":4}","trial","18646","survey-likert","69","1012720","0.0-5.0-0.54","34","1","2022-11-29 21:25:01","2df368f4e41f066fd1c82c297b4a1108","186.104.235.109","Mozilla/5.0 (Windows NT 10.0; Win64; x64) AppleWebKit/537.36 (KHTML, like Gecko) Chrome/107.0.0.0 Safari/537.36 OPR/93.0.0.0","WebKit","Opera","93.0.0.0","Windows","10.0","[0]","","15","4",""
"3012","You see how a kitten is playing in the sandbox <br> T&uacute ves como un gatito est&aacute jugando en la caja de arena","{""Q0"":4}","trial","18646","survey-likert","70","1015736","0.0-5.0-0.55","34","1","2022-11-29 21:25:01","2df368f4e41f066fd1c82c297b4a1108","186.104.235.109","Mozilla/5.0 (Windows NT 10.0; Win64; x64) AppleWebKit/537.36 (KHTML, like Gecko) Chrome/107.0.0.0 Safari/537.36 OPR/93.0.0.0","WebKit","Opera","93.0.0.0","Windows","10.0","[0]","","52","4",""
"2906","You drop a thermometer on the box <br> T&uacute tiras un term&oacutemetro a la caja","{""Q0"":4}","trial","18646","survey-likert","71","1018646","0.0-5.0-0.56","34","1","2022-11-29 21:25:01","2df368f4e41f066fd1c82c297b4a1108","186.104.235.109","Mozilla/5.0 (Windows NT 10.0; Win64; x64) AppleWebKit/537.36 (KHTML, like Gecko) Chrome/107.0.0.0 Safari/537.36 OPR/93.0.0.0","WebKit","Opera","93.0.0.0","Windows","10.0","[0]","","70","4",""
"3548","You drop a cushion on the magazine <br> T&uacute tiras un coj&iacuten a la revista","{""Q0"":4}","trial","18646","survey-likert","72","1022198","0.0-5.0-0.57","34","1","2022-11-29 21:25:01","2df368f4e41f066fd1c82c297b4a1108","186.104.235.109","Mozilla/5.0 (Windows NT 10.0; Win64; x64) AppleWebKit/537.36 (KHTML, like Gecko) Chrome/107.0.0.0 Safari/537.36 OPR/93.0.0.0","WebKit","Opera","93.0.0.0","Windows","10.0","[0]","","38","4",""
"3662","You drop a cabbage on the table <br> T&uacute tiras una col a la mesa","{""Q0"":4}","trial","18646","survey-likert","73","1025864","0.0-5.0-0.58","34","1","2022-11-29 21:25:01","2df368f4e41f066fd1c82c297b4a1108","186.104.235.109","Mozilla/5.0 (Windows NT 10.0; Win64; x64) AppleWebKit/537.36 (KHTML, like Gecko) Chrome/107.0.0.0 Safari/537.36 OPR/93.0.0.0","WebKit","Opera","93.0.0.0","Windows","10.0","[0]","","35","4",""
"4676","You drop a bowling ball on a paper cup <br> T&uacute tiras una bola de boliche a un vaso de papel","{""Q0"":4}","trial","18646","survey-likert","74","1030544","0.0-5.0-0.59","34","1","2022-11-29 21:25:01","2df368f4e41f066fd1c82c297b4a1108","186.104.235.109","Mozilla/5.0 (Windows NT 10.0; Win64; x64) AppleWebKit/537.36 (KHTML, like Gecko) Chrome/107.0.0.0 Safari/537.36 OPR/93.0.0.0","WebKit","Opera","93.0.0.0","Windows","10.0","[0]","","24","4",""
"3810","You see how a zebra is playing with a horse <br> T&uacute ves como una cebra est&aacute jugando con un caballo","{""Q0"":4}","trial","18646","survey-likert","75","1034358","0.0-5.0-0.60","34","1","2022-11-29 21:25:01","2df368f4e41f066fd1c82c297b4a1108","186.104.235.109","Mozilla/5.0 (Windows NT 10.0; Win64; x64) AppleWebKit/537.36 (KHTML, like Gecko) Chrome/107.0.0.0 Safari/537.36 OPR/93.0.0.0","WebKit","Opera","93.0.0.0","Windows","10.0","[0]","","66","4",""
"4690","You see how a president is writing in the notebook <br> T&uacute ves como un presidente est&aacute escribiendo en la libreta","{""Q0"":4}","trial","18646","survey-likert","76","1039052","0.0-5.0-0.61","34","1","2022-11-29 21:25:01","2df368f4e41f066fd1c82c297b4a1108","186.104.235.109","Mozilla/5.0 (Windows NT 10.0; Win64; x64) AppleWebKit/537.36 (KHTML, like Gecko) Chrome/107.0.0.0 Safari/537.36 OPR/93.0.0.0","WebKit","Opera","93.0.0.0","Windows","10.0","[0]","","63","4",""
"4984","You drop a bowling ball on an empty can of beer <br> T&uacute tiras una bola de boliche a una lata de cerveza vac&iacutea","{""Q0"":4}","trial","18646","survey-likert","77","1044040","0.0-5.0-0.62","34","1","2022-11-29 21:25:01","2df368f4e41f066fd1c82c297b4a1108","186.104.235.109","Mozilla/5.0 (Windows NT 10.0; Win64; x64) AppleWebKit/537.36 (KHTML, like Gecko) Chrome/107.0.0.0 Safari/537.36 OPR/93.0.0.0","WebKit","Opera","93.0.0.0","Windows","10.0","[0]","","3","4",""
"3490","You see how a nurse is taking a syringe <br> T&uacute ves como una enfermera est&aacute agarrando una jeringuilla","{""Q0"":4}","trial","18646","survey-likert","78","1047534","0.0-5.0-0.63","34","1","2022-11-29 21:25:01","2df368f4e41f066fd1c82c297b4a1108","186.104.235.109","Mozilla/5.0 (Windows NT 10.0; Win64; x64) AppleWebKit/537.36 (KHTML, like Gecko) Chrome/107.0.0.0 Safari/537.36 OPR/93.0.0.0","WebKit","Opera","93.0.0.0","Windows","10.0","[0]","","48","4",""
"4051","You see how a doctor is taking a stethoscope <br> T&uacute ves como un doctor est&aacute agarrando un estetoscopio","{""Q0"":4}","trial","18646","survey-likert","79","1051590","0.0-5.0-0.64","34","1","2022-11-29 21:25:01","2df368f4e41f066fd1c82c297b4a1108","186.104.235.109","Mozilla/5.0 (Windows NT 10.0; Win64; x64) AppleWebKit/537.36 (KHTML, like Gecko) Chrome/107.0.0.0 Safari/537.36 OPR/93.0.0.0","WebKit","Opera","93.0.0.0","Windows","10.0","[0]","","49","4",""
"6174","You see how a cook is taking a knife <br> T&uacute ves como un cocinero est&aacute agarrando un cuchillo","{""Q0"":4}","trial","18646","survey-likert","80","1057768","0.0-5.0-0.65","34","1","2022-11-29 21:25:01","2df368f4e41f066fd1c82c297b4a1108","186.104.235.109","Mozilla/5.0 (Windows NT 10.0; Win64; x64) AppleWebKit/537.36 (KHTML, like Gecko) Chrome/107.0.0.0 Safari/537.36 OPR/93.0.0.0","WebKit","Opera","93.0.0.0","Windows","10.0","[0]","","71","4",""
"2126","You see how a student is writing on a board <br> T&uacute ves como un estudiante est&aacute escribiendo en la pizarra","{""Q0"":4}","trial","18646","survey-likert","81","1059898","0.0-5.0-0.66","34","1","2022-11-29 21:25:01","2df368f4e41f066fd1c82c297b4a1108","186.104.235.109","Mozilla/5.0 (Windows NT 10.0; Win64; x64) AppleWebKit/537.36 (KHTML, like Gecko) Chrome/107.0.0.0 Safari/537.36 OPR/93.0.0.0","WebKit","Opera","93.0.0.0","Windows","10.0","[0]","","50","4",""
"2667","You drop a bowling ball on a ceramic plate <br> T&uacute tiras una bola de boliche a un plato de cer&aacutemica","{""Q0"":4}","trial","18646","survey-likert","82","1062570","0.0-5.0-0.67","34","1","2022-11-29 21:25:01","2df368f4e41f066fd1c82c297b4a1108","186.104.235.109","Mozilla/5.0 (Windows NT 10.0; Win64; x64) AppleWebKit/537.36 (KHTML, like Gecko) Chrome/107.0.0.0 Safari/537.36 OPR/93.0.0.0","WebKit","Opera","93.0.0.0","Windows","10.0","[0]","","19","4",""
"3339","You drop a remote on the rug <br> T&uacute tiras un control remoto a la alfombra","{""Q0"":4}","trial","18646","survey-likert","83","1065914","0.0-5.0-0.68","34","1","2022-11-29 21:25:01","2df368f4e41f066fd1c82c297b4a1108","186.104.235.109","Mozilla/5.0 (Windows NT 10.0; Win64; x64) AppleWebKit/537.36 (KHTML, like Gecko) Chrome/107.0.0.0 Safari/537.36 OPR/93.0.0.0","WebKit","Opera","93.0.0.0","Windows","10.0","[0]","","39","4",""
"2433","You see how a butterfly is sitting on a flower <br> T&uacute ves como una mariposa est&aacute reposando en una flor","{""Q0"":4}","trial","18646","survey-likert","84","1068352","0.0-5.0-0.69","34","1","2022-11-29 21:25:01","2df368f4e41f066fd1c82c297b4a1108","186.104.235.109","Mozilla/5.0 (Windows NT 10.0; Win64; x64) AppleWebKit/537.36 (KHTML, like Gecko) Chrome/107.0.0.0 Safari/537.36 OPR/93.0.0.0","WebKit","Opera","93.0.0.0","Windows","10.0","[0]","","59","4",""
"3312","You drop a pencil on the shoe <br> T&uacute tiras un l&aacutepiz al zapato","{""Q0"":4}","trial","18646","survey-likert","85","1071668","0.0-5.0-0.70","34","1","2022-11-29 21:25:01","2df368f4e41f066fd1c82c297b4a1108","186.104.235.109","Mozilla/5.0 (Windows NT 10.0; Win64; x64) AppleWebKit/537.36 (KHTML, like Gecko) Chrome/107.0.0.0 Safari/537.36 OPR/93.0.0.0","WebKit","Opera","93.0.0.0","Windows","10.0","[0]","","40","4",""
"8797","You see how a teenage girl is playing the piano <br> T&uacute ves como una ni&ntildea adolescente est&aacute tocando el piano","{""Q0"":1}","trial","18646","survey-likert","86","1080470","0.0-5.0-0.71","34","1","2022-11-29 21:25:01","2df368f4e41f066fd1c82c297b4a1108","186.104.235.109","Mozilla/5.0 (Windows NT 10.0; Win64; x64) AppleWebKit/537.36 (KHTML, like Gecko) Chrome/107.0.0.0 Safari/537.36 OPR/93.0.0.0","WebKit","Opera","93.0.0.0","Windows","10.0","[0]","","54","1",""
"16665","You see how a teenage girl is playing the piano <br> T&uacute ves como una ni&ntildea adolescente est&aacute tocando el piano","{""Q0"":""Tú ves como una adolescente/ una chica adolescente toca el piano""}","low_rate","18646","survey-text","87","1097140","0.0-5.0-1.71-0.71","34","1","2022-11-29 21:25:01","2df368f4e41f066fd1c82c297b4a1108","186.104.235.109","Mozilla/5.0 (Windows NT 10.0; Win64; x64) AppleWebKit/537.36 (KHTML, like Gecko) Chrome/107.0.0.0 Safari/537.36 OPR/93.0.0.0","WebKit","Opera","93.0.0.0","Windows","10.0","","","54","",""
"4678","
    <p style=""font-size:20px;""> You have completed the experiment portion! </p>
    <p style=""font-size:20px;""> Before you are done, we would like you to answer some basic demographic questions. </p>
    <p style=""font-size:20px;""> Note that your answers to these questions will not affect your compensation/credit. </p>
    <p style=""font-size:20px;""> Click the button below to continue.</p>
    ","0","demo","18646","html-button-response","88","1101822","0.0-6.0","34","1","2022-11-29 21:25:01","2df368f4e41f066fd1c82c297b4a1108","186.104.235.109","Mozilla/5.0 (Windows NT 10.0; Win64; x64) AppleWebKit/537.36 (KHTML, like Gecko) Chrome/107.0.0.0 Safari/537.36 OPR/93.0.0.0","WebKit","Opera","93.0.0.0","Windows","10.0","","","","",""
"14855","","{""Age"":""23"",""Gender"":""Female"",""Education"":""17""}","demo","18646","survey-text","89","1116682","0.0-7.0-0.0","34","1","2022-11-29 21:25:01","2df368f4e41f066fd1c82c297b4a1108","186.104.235.109","Mozilla/5.0 (Windows NT 10.0; Win64; x64) AppleWebKit/537.36 (KHTML, like Gecko) Chrome/107.0.0.0 Safari/537.36 OPR/93.0.0.0","WebKit","Opera","93.0.0.0","Windows","10.0","","","","",""
"14034","","{""Race"":[""Other""]}","demo","18646","survey-multi-select","90","1130722","0.0-7.0-1.0","34","1","2022-11-29 21:25:01","2df368f4e41f066fd1c82c297b4a1108","186.104.235.109","Mozilla/5.0 (Windows NT 10.0; Win64; x64) AppleWebKit/537.36 (KHTML, like Gecko) Chrome/107.0.0.0 Safari/537.36 OPR/93.0.0.0","WebKit","Opera","93.0.0.0","Windows","10.0","[0]","","","",""
"6768","","{""Latino"":""Yes"",""Alert"":""Morning""}","demo","18646","survey-multi-choice","91","1137496","0.0-7.0-2.0","34","1","2022-11-29 21:25:01","2df368f4e41f066fd1c82c297b4a1108","186.104.235.109","Mozilla/5.0 (Windows NT 10.0; Win64; x64) AppleWebKit/537.36 (KHTML, like Gecko) Chrome/107.0.0.0 Safari/537.36 OPR/93.0.0.0","WebKit","Opera","93.0.0.0","Windows","10.0","[0,1]","","","",""
"3891","","{""Q0"":""""}","demo","18646","survey-text","92","1141392","0.0-7.0-3.0","34","1","2022-11-29 21:25:01","2df368f4e41f066fd1c82c297b4a1108","186.104.235.109","Mozilla/5.0 (Windows NT 10.0; Win64; x64) AppleWebKit/537.36 (KHTML, like Gecko) Chrome/107.0.0.0 Safari/537.36 OPR/93.0.0.0","WebKit","Opera","93.0.0.0","Windows","10.0","","","","",""
"22863","<p>Thank you for participating! </p><strong>Your completion code is: CXEJB7NH. Please copy-paste this code and submit it on Prolific.</strong><p>Click <a href=""https://drive.google.com/file/d/1c70cdHFlc0AaR6RujLWLJwWkv1RbHQJY/view?usp=sharing"" target=""_blank"" rel=""noopener noreferrer"">here</a> to access the debriefing form and know more about our research. <p> Please click the button below to finish the experiment and save your data.</p> <p> IMPORTANT: Please <strong>do not leave this page </strong> without clicking the button below.</p> <p> You may close the tab/window after you click the button below.","0","","","html-button-response","93","1164257","0.0-8.0","34","1","2022-11-29 21:25:01","2df368f4e41f066fd1c82c297b4a1108","186.104.235.109","Mozilla/5.0 (Windows NT 10.0; Win64; x64) AppleWebKit/537.36 (KHTML, like Gecko) Chrome/107.0.0.0 Safari/537.36 OPR/93.0.0.0","WebKit","Opera","93.0.0.0","Windows","10.0","","","","",""
