"rt","stimulus","response","typeoftrial","subject","trial_type","trial_index","time_elapsed","internal_node_id","run_id","condition","recorded_at","source_code_version","ip","user_agent","device","browser","browser_version","platform","platform_version","question_order","practice_rating","sentence_num","rating","Experiment"
"17619","
        <p style=""font-size:20px;""> Welcome! Thank you for your interest in our study. </p>
        <p style=""font-size:20px;""> This study is being conducted by researchers at Bowdoin College.</p>
        <p style=""font-size:20px;""> In this experiment, you will be asked to rate the accuracy of English and Spanish translations.</p>
        <p style=""font-size:20px;""> The entire experiment should not last more than 20 minutes. You will be paid $3 USD for your participation. </p>
        <p style=""font-size:20px;""> Please click <a href = ""https://drive.google.com/file/d/1L92a02eEKCpaAEipmqDcBCDR7rsarqFE/view?usp=sharing"" target = ""_blank"">here</a> to read the full consent form. </p>
        <p style=""font-size:20px;""> If you agree to participate, please click the button below to continue to experiment instructions.</p>
        ","0","consent","8001","html-button-response","0","17625","0.0-0.0","54","1","2022-11-29 21:25:38","2df368f4e41f066fd1c82c297b4a1108","201.172.175.92","Mozilla/5.0 (Windows NT 10.0; Win64; x64) AppleWebKit/537.36 (KHTML, like Gecko) Chrome/107.0.0.0 Safari/537.36","WebKit","Chrome","107.0.0.0","Windows","10.0","","","","",""
"17653","","{""ID"":""614d05f9b577ed47c8b6db75""}","ID","8001","survey-text","1","35293","0.0-1.0","54","1","2022-11-29 21:25:38","2df368f4e41f066fd1c82c297b4a1108","201.172.175.92","Mozilla/5.0 (Windows NT 10.0; Win64; x64) AppleWebKit/537.36 (KHTML, like Gecko) Chrome/107.0.0.0 Safari/537.36","WebKit","Chrome","107.0.0.0","Windows","10.0","","","","",""
"21837","
        <p style=""font-size:20px;""> You are about to begin the practice test. </p>
        <p style=""font-size:20px;""> On each trial, you will see a sentence in English and its corresponding Spanish translation. </p>
        <p style=""font-size:20px;""> You will rate the accuracy of the translation on a scale from ""Not at all accurate"" to ""Very accurate."" </p>
        <p style=""font-size:20px;""> If you rate the translation as ""Somewhat innaccurate"" or ""Not at all accurate,"" you will be asked to provide your own translation or a reason why the translation is inaccurate. </p>
        <p style=""font-size:20px;""> Click the button below to continue to the practice session.</p>","0","instructions","8001","html-button-response","2","57137","0.0-2.0","54","1","2022-11-29 21:25:38","2df368f4e41f066fd1c82c297b4a1108","201.172.175.92","Mozilla/5.0 (Windows NT 10.0; Win64; x64) AppleWebKit/537.36 (KHTML, like Gecko) Chrome/107.0.0.0 Safari/537.36","WebKit","Chrome","107.0.0.0","Windows","10.0","","","","",""
"19701","You drop a rock on a phone <br> T&uacute tiras una piedra a un tel&eacutefono","{""Q0"":4}","practice","8001","survey-likert","3","76839","0.0-3.0-0.0","54","1","2022-11-29 21:25:38","2df368f4e41f066fd1c82c297b4a1108","201.172.175.92","Mozilla/5.0 (Windows NT 10.0; Win64; x64) AppleWebKit/537.36 (KHTML, like Gecko) Chrome/107.0.0.0 Safari/537.36","WebKit","Chrome","107.0.0.0","Windows","10.0","[0]","4","","",""
"11297","You see how a tiger is playing with a goose <br> T&uacute ves como un le&oacuten come una pizza","{""Q0"":0}","practice","8001","survey-likert","4","88151","0.0-3.0-0.1","54","1","2022-11-29 21:25:38","2df368f4e41f066fd1c82c297b4a1108","201.172.175.92","Mozilla/5.0 (Windows NT 10.0; Win64; x64) AppleWebKit/537.36 (KHTML, like Gecko) Chrome/107.0.0.0 Safari/537.36","WebKit","Chrome","107.0.0.0","Windows","10.0","[0]","0","","",""
"49768","You see how a tiger is playing with a goose <br> T&uacute ves como un le&oacuten come una pizza","{""Q0"":""En lugar de león, la oración menciona a un tigre, y dicho tigre juega con un ganso, no se menciona una pizza en la oración original.""}","practice_low_rate","8001","survey-text","5","137947","0.0-3.0-1.1-0.1","54","1","2022-11-29 21:25:38","2df368f4e41f066fd1c82c297b4a1108","201.172.175.92","Mozilla/5.0 (Windows NT 10.0; Win64; x64) AppleWebKit/537.36 (KHTML, like Gecko) Chrome/107.0.0.0 Safari/537.36","WebKit","Chrome","107.0.0.0","Windows","10.0","","","5","",""
"7829","You see how a duck is playing with a pumpkin <br> T&uacute ves como un pato est&aacute jugando con una calabaza","{""Q0"":4}","practice","8001","survey-likert","6","145782","0.0-3.0-0.2","54","1","2022-11-29 21:25:38","2df368f4e41f066fd1c82c297b4a1108","201.172.175.92","Mozilla/5.0 (Windows NT 10.0; Win64; x64) AppleWebKit/537.36 (KHTML, like Gecko) Chrome/107.0.0.0 Safari/537.36","WebKit","Chrome","107.0.0.0","Windows","10.0","[0]","4","","",""
"73424","You see how a teacher is drawing a picture <br> T&uacute ves como un maestro pinta una foto","{""Q0"":3}","practice","8001","survey-likert","7","219218","0.0-3.0-0.3","54","1","2022-11-29 21:25:38","2df368f4e41f066fd1c82c297b4a1108","201.172.175.92","Mozilla/5.0 (Windows NT 10.0; Win64; x64) AppleWebKit/537.36 (KHTML, like Gecko) Chrome/107.0.0.0 Safari/537.36","WebKit","Chrome","107.0.0.0","Windows","10.0","[0]","3","","",""
"9926","You see how an artist is running <br> T&uacute ves como un artista est&aacute corriendo","{""Q0"":4}","practice","8001","survey-likert","8","229159","0.0-3.0-0.4","54","1","2022-11-29 21:25:38","2df368f4e41f066fd1c82c297b4a1108","201.172.175.92","Mozilla/5.0 (Windows NT 10.0; Win64; x64) AppleWebKit/537.36 (KHTML, like Gecko) Chrome/107.0.0.0 Safari/537.36","WebKit","Chrome","107.0.0.0","Windows","10.0","[0]","4","","",""
"16607","You drop a bowling ball on a mircrowave <br> T&uacute tiras una bola de boliche a un horno","{""Q0"":3}","practice","8001","survey-likert","9","245779","0.0-3.0-0.5","54","1","2022-11-29 21:25:38","2df368f4e41f066fd1c82c297b4a1108","201.172.175.92","Mozilla/5.0 (Windows NT 10.0; Win64; x64) AppleWebKit/537.36 (KHTML, like Gecko) Chrome/107.0.0.0 Safari/537.36","WebKit","Chrome","107.0.0.0","Windows","10.0","[0]","3","","",""
"2849","<p style=""font-size:20px;"">You have now completed the practice session! </p>
        <p style=""font-size:20px;"">You will now move on to the main experiment. </p>
        <p style=""font-size:20px;"">Please click the button below to continue. </p>","0","movetoexp","8001","html-button-response","10","248645","0.0-4.0","54","1","2022-11-29 21:25:38","2df368f4e41f066fd1c82c297b4a1108","201.172.175.92","Mozilla/5.0 (Windows NT 10.0; Win64; x64) AppleWebKit/537.36 (KHTML, like Gecko) Chrome/107.0.0.0 Safari/537.36","WebKit","Chrome","107.0.0.0","Windows","10.0","","","","",""
"7236","You see how a man is playing with a cat <br> T&uacute ves como un hombre est&aacute jugando con un gato","{""Q0"":4}","trial","8001","survey-likert","11","255884","0.0-5.0-0.0","54","1","2022-11-29 21:25:38","2df368f4e41f066fd1c82c297b4a1108","201.172.175.92","Mozilla/5.0 (Windows NT 10.0; Win64; x64) AppleWebKit/537.36 (KHTML, like Gecko) Chrome/107.0.0.0 Safari/537.36","WebKit","Chrome","107.0.0.0","Windows","10.0","[0]","","67","4",""
"12145","You drop a bowling ball on a chocolate muffin <br> T&uacute tiras una bola de boliche a una magdalena de chocolate","{""Q0"":4}","trial","8001","survey-likert","12","268043","0.0-5.0-0.1","54","1","2022-11-29 21:25:38","2df368f4e41f066fd1c82c297b4a1108","201.172.175.92","Mozilla/5.0 (Windows NT 10.0; Win64; x64) AppleWebKit/537.36 (KHTML, like Gecko) Chrome/107.0.0.0 Safari/537.36","WebKit","Chrome","107.0.0.0","Windows","10.0","[0]","","16","4",""
"7511","You see how a donkey is drinking water <br> T&uacute ves como un burro est&aacute bebiendo agua","{""Q0"":4}","trial","8001","survey-likert","13","275568","0.0-5.0-0.2","54","1","2022-11-29 21:25:38","2df368f4e41f066fd1c82c297b4a1108","201.172.175.92","Mozilla/5.0 (Windows NT 10.0; Win64; x64) AppleWebKit/537.36 (KHTML, like Gecko) Chrome/107.0.0.0 Safari/537.36","WebKit","Chrome","107.0.0.0","Windows","10.0","[0]","","45","4",""
"16960","You drop a bowling ball on a hat <br> T&uacute tiras una bola de boliche a una gorra","{""Q0"":3}","trial","8001","survey-likert","14","292546","0.0-5.0-0.3","54","1","2022-11-29 21:25:38","2df368f4e41f066fd1c82c297b4a1108","201.172.175.92","Mozilla/5.0 (Windows NT 10.0; Win64; x64) AppleWebKit/537.36 (KHTML, like Gecko) Chrome/107.0.0.0 Safari/537.36","WebKit","Chrome","107.0.0.0","Windows","10.0","[0]","","10","3",""
"14415","You drop a bowling ball on a wine glass <br> T&uacute tiras una bola de boliche a una copa de vino","{""Q0"":3}","trial","8001","survey-likert","15","306972","0.0-5.0-0.4","54","1","2022-11-29 21:25:38","2df368f4e41f066fd1c82c297b4a1108","201.172.175.92","Mozilla/5.0 (Windows NT 10.0; Win64; x64) AppleWebKit/537.36 (KHTML, like Gecko) Chrome/107.0.0.0 Safari/537.36","WebKit","Chrome","107.0.0.0","Windows","10.0","[0]","","5","3",""
"7687","You drop a bowling ball on a tomato <br> T&uacute tiras una bola de boliche a un tomate","{""Q0"":3}","trial","8001","survey-likert","16","314675","0.0-5.0-0.5","54","1","2022-11-29 21:25:38","2df368f4e41f066fd1c82c297b4a1108","201.172.175.92","Mozilla/5.0 (Windows NT 10.0; Win64; x64) AppleWebKit/537.36 (KHTML, like Gecko) Chrome/107.0.0.0 Safari/537.36","WebKit","Chrome","107.0.0.0","Windows","10.0","[0]","","23","3",""
"6270","You drop a bowling ball on an iPhone <br> T&uacute tiras una bola de boliche a un iPhone","{""Q0"":3}","trial","8001","survey-likert","17","320959","0.0-5.0-0.6","54","1","2022-11-29 21:25:38","2df368f4e41f066fd1c82c297b4a1108","201.172.175.92","Mozilla/5.0 (Windows NT 10.0; Win64; x64) AppleWebKit/537.36 (KHTML, like Gecko) Chrome/107.0.0.0 Safari/537.36","WebKit","Chrome","107.0.0.0","Windows","10.0","[0]","","13","3",""
"11541","You drop a bowling ball on an egg <br> T&uacute tiras una bola de boliche a un huevo","{""Q0"":3}","trial","8001","survey-likert","18","332512","0.0-5.0-0.7","54","1","2022-11-29 21:25:38","2df368f4e41f066fd1c82c297b4a1108","201.172.175.92","Mozilla/5.0 (Windows NT 10.0; Win64; x64) AppleWebKit/537.36 (KHTML, like Gecko) Chrome/107.0.0.0 Safari/537.36","WebKit","Chrome","107.0.0.0","Windows","10.0","[0]","","6","3",""
"17507","You drop a pencil on the shoe <br> T&uacute tiras un l&aacutepiz al zapato","{""Q0"":3}","trial","8001","survey-likert","19","350033","0.0-5.0-0.8","54","1","2022-11-29 21:25:38","2df368f4e41f066fd1c82c297b4a1108","201.172.175.92","Mozilla/5.0 (Windows NT 10.0; Win64; x64) AppleWebKit/537.36 (KHTML, like Gecko) Chrome/107.0.0.0 Safari/537.36","WebKit","Chrome","107.0.0.0","Windows","10.0","[0]","","40","3",""
"8712","You see how an astronaut is putting on a space suit <br> T&uacute ves como un astronauta se est&aacute poniendo su traje espacial","{""Q0"":4}","trial","8001","survey-likert","20","358760","0.0-5.0-0.9","54","1","2022-11-29 21:25:38","2df368f4e41f066fd1c82c297b4a1108","201.172.175.92","Mozilla/5.0 (Windows NT 10.0; Win64; x64) AppleWebKit/537.36 (KHTML, like Gecko) Chrome/107.0.0.0 Safari/537.36","WebKit","Chrome","107.0.0.0","Windows","10.0","[0]","","33","4",""
"8357","You see how a dentist is drinking a can of cola <br> T&uacute ves como un dentista est&aacute bebiendo una lata de cola","{""Q0"":4}","trial","8001","survey-likert","21","367134","0.0-5.0-0.10","54","1","2022-11-29 21:25:38","2df368f4e41f066fd1c82c297b4a1108","201.172.175.92","Mozilla/5.0 (Windows NT 10.0; Win64; x64) AppleWebKit/537.36 (KHTML, like Gecko) Chrome/107.0.0.0 Safari/537.36","WebKit","Chrome","107.0.0.0","Windows","10.0","[0]","","47","4",""
"10983","You drop a ring on the newspaper <br> T&uacute tiras un anillo al peri&oacutedico","{""Q0"":1}","trial","8001","survey-likert","22","378133","0.0-5.0-0.11","54","1","2022-11-29 21:25:38","2df368f4e41f066fd1c82c297b4a1108","201.172.175.92","Mozilla/5.0 (Windows NT 10.0; Win64; x64) AppleWebKit/537.36 (KHTML, like Gecko) Chrome/107.0.0.0 Safari/537.36","WebKit","Chrome","107.0.0.0","Windows","10.0","[0]","","41","1",""
"10795","You drop a ring on the newspaper <br> T&uacute tiras un anillo al peri&oacutedico","{""Q0"":""Tú tiras un anillo sobre el periódico.""}","low_rate","8001","survey-text","23","388959","0.0-5.0-1.11-0.11","54","1","2022-11-29 21:25:38","2df368f4e41f066fd1c82c297b4a1108","201.172.175.92","Mozilla/5.0 (Windows NT 10.0; Win64; x64) AppleWebKit/537.36 (KHTML, like Gecko) Chrome/107.0.0.0 Safari/537.36","WebKit","Chrome","107.0.0.0","Windows","10.0","","","41","",""
"8637","You see how a horse is chewing hay <br> T&uacute ves como un caballo est&aacute masticando el heno","{""Q0"":4}","trial","8001","survey-likert","24","397601","0.0-5.0-0.12","54","1","2022-11-29 21:25:38","2df368f4e41f066fd1c82c297b4a1108","201.172.175.92","Mozilla/5.0 (Windows NT 10.0; Win64; x64) AppleWebKit/537.36 (KHTML, like Gecko) Chrome/107.0.0.0 Safari/537.36","WebKit","Chrome","107.0.0.0","Windows","10.0","[0]","","55","4",""
"13214","You drop a bowling ball on an iPAD <br> T&uacute tiras una bola de boliche a un iPad","{""Q0"":1}","trial","8001","survey-likert","25","410828","0.0-5.0-0.13","54","1","2022-11-29 21:25:38","2df368f4e41f066fd1c82c297b4a1108","201.172.175.92","Mozilla/5.0 (Windows NT 10.0; Win64; x64) AppleWebKit/537.36 (KHTML, like Gecko) Chrome/107.0.0.0 Safari/537.36","WebKit","Chrome","107.0.0.0","Windows","10.0","[0]","","12","1",""
"35546","You drop a bowling ball on an iPAD <br> T&uacute tiras una bola de boliche a un iPad","{""Q0"":""Cambiaría \""en\"" por \""sobre\"".""}","low_rate","8001","survey-text","26","446393","0.0-5.0-1.13-0.13","54","1","2022-11-29 21:25:38","2df368f4e41f066fd1c82c297b4a1108","201.172.175.92","Mozilla/5.0 (Windows NT 10.0; Win64; x64) AppleWebKit/537.36 (KHTML, like Gecko) Chrome/107.0.0.0 Safari/537.36","WebKit","Chrome","107.0.0.0","Windows","10.0","","","12","",""
"19976","You drop a bowling ball on a porcelain figure <br> T&uacute tiras una bola de boliche a una figura de porcelana","{""Q0"":1}","trial","8001","survey-likert","27","466374","0.0-5.0-0.14","54","1","2022-11-29 21:25:38","2df368f4e41f066fd1c82c297b4a1108","201.172.175.92","Mozilla/5.0 (Windows NT 10.0; Win64; x64) AppleWebKit/537.36 (KHTML, like Gecko) Chrome/107.0.0.0 Safari/537.36","WebKit","Chrome","107.0.0.0","Windows","10.0","[0]","","1","1",""
"14275","You drop a bowling ball on a porcelain figure <br> T&uacute tiras una bola de boliche a una figura de porcelana","{""Q0"":""Tú tiras una bola de boliche sobre una figura de porcelana.""}","low_rate","8001","survey-text","28","480668","0.0-5.0-1.14-0.14","54","1","2022-11-29 21:25:38","2df368f4e41f066fd1c82c297b4a1108","201.172.175.92","Mozilla/5.0 (Windows NT 10.0; Win64; x64) AppleWebKit/537.36 (KHTML, like Gecko) Chrome/107.0.0.0 Safari/537.36","WebKit","Chrome","107.0.0.0","Windows","10.0","","","1","",""
"7207","You see how a giraffe is playing with a zebra <br> T&uacute ves como una jirafa est&aacute jugando con una cebra","{""Q0"":4}","trial","8001","survey-likert","29","487879","0.0-5.0-0.15","54","1","2022-11-29 21:25:38","2df368f4e41f066fd1c82c297b4a1108","201.172.175.92","Mozilla/5.0 (Windows NT 10.0; Win64; x64) AppleWebKit/537.36 (KHTML, like Gecko) Chrome/107.0.0.0 Safari/537.36","WebKit","Chrome","107.0.0.0","Windows","10.0","[0]","","65","4",""
"9263","You drop a cushion on the magazine <br> T&uacute tiras un coj&iacuten a la revista","{""Q0"":1}","trial","8001","survey-likert","30","497157","0.0-5.0-0.16","54","1","2022-11-29 21:25:38","2df368f4e41f066fd1c82c297b4a1108","201.172.175.92","Mozilla/5.0 (Windows NT 10.0; Win64; x64) AppleWebKit/537.36 (KHTML, like Gecko) Chrome/107.0.0.0 Safari/537.36","WebKit","Chrome","107.0.0.0","Windows","10.0","[0]","","38","1",""
"11882","You drop a cushion on the magazine <br> T&uacute tiras un coj&iacuten a la revista","{""Q0"":""Tú tiras un cojín sobre la revista.""}","low_rate","8001","survey-text","31","509059","0.0-5.0-1.16-0.16","54","1","2022-11-29 21:25:38","2df368f4e41f066fd1c82c297b4a1108","201.172.175.92","Mozilla/5.0 (Windows NT 10.0; Win64; x64) AppleWebKit/537.36 (KHTML, like Gecko) Chrome/107.0.0.0 Safari/537.36","WebKit","Chrome","107.0.0.0","Windows","10.0","","","38","",""
"11639","You drop a bowling ball on a donut <br> T&uacute tiras una bola de boliche a una rosquilla","{""Q0"":3}","trial","8001","survey-likert","32","520703","0.0-5.0-0.17","54","1","2022-11-29 21:25:38","2df368f4e41f066fd1c82c297b4a1108","201.172.175.92","Mozilla/5.0 (Windows NT 10.0; Win64; x64) AppleWebKit/537.36 (KHTML, like Gecko) Chrome/107.0.0.0 Safari/537.36","WebKit","Chrome","107.0.0.0","Windows","10.0","[0]","","17","3",""
"10252","You drop a fork on the plate <br> T&uacute tiras un tenedor al plato","{""Q0"":1}","trial","8001","survey-likert","33","530969","0.0-5.0-0.18","54","1","2022-11-29 21:25:38","2df368f4e41f066fd1c82c297b4a1108","201.172.175.92","Mozilla/5.0 (Windows NT 10.0; Win64; x64) AppleWebKit/537.36 (KHTML, like Gecko) Chrome/107.0.0.0 Safari/537.36","WebKit","Chrome","107.0.0.0","Windows","10.0","[0]","","26","1",""
"17211","You drop a fork on the plate <br> T&uacute tiras un tenedor al plato","{""Q0"":""Tú dejas caer un tenedor sobre el plato.""}","low_rate","8001","survey-text","34","548195","0.0-5.0-1.18-0.18","54","1","2022-11-29 21:25:38","2df368f4e41f066fd1c82c297b4a1108","201.172.175.92","Mozilla/5.0 (Windows NT 10.0; Win64; x64) AppleWebKit/537.36 (KHTML, like Gecko) Chrome/107.0.0.0 Safari/537.36","WebKit","Chrome","107.0.0.0","Windows","10.0","","","26","",""
"8821","You see how a woman is paying with a debit card <br> T&uacute ves como una mujer est&aacute pagando con una tarjeta de d&eacutebito","{""Q0"":4}","trial","8001","survey-likert","35","557021","0.0-5.0-0.19","54","1","2022-11-29 21:25:38","2df368f4e41f066fd1c82c297b4a1108","201.172.175.92","Mozilla/5.0 (Windows NT 10.0; Win64; x64) AppleWebKit/537.36 (KHTML, like Gecko) Chrome/107.0.0.0 Safari/537.36","WebKit","Chrome","107.0.0.0","Windows","10.0","[0]","","64","4",""
"10969","You see how a president is writing in the notebook <br> T&uacute ves como un presidente est&aacute escribiendo en la libreta","{""Q0"":4}","trial","8001","survey-likert","36","568005","0.0-5.0-0.20","54","1","2022-11-29 21:25:38","2df368f4e41f066fd1c82c297b4a1108","201.172.175.92","Mozilla/5.0 (Windows NT 10.0; Win64; x64) AppleWebKit/537.36 (KHTML, like Gecko) Chrome/107.0.0.0 Safari/537.36","WebKit","Chrome","107.0.0.0","Windows","10.0","[0]","","63","4",""
"6661","You drop a cabbage on the table <br> T&uacute tiras una col a la mesa","{""Q0"":1}","trial","8001","survey-likert","37","574680","0.0-5.0-0.21","54","1","2022-11-29 21:25:38","2df368f4e41f066fd1c82c297b4a1108","201.172.175.92","Mozilla/5.0 (Windows NT 10.0; Win64; x64) AppleWebKit/537.36 (KHTML, like Gecko) Chrome/107.0.0.0 Safari/537.36","WebKit","Chrome","107.0.0.0","Windows","10.0","[0]","","35","1",""
"6591","You drop a cabbage on the table <br> T&uacute tiras una col a la mesa","{""Q0"":""Tú tiras una col sobre la mesa.""}","low_rate","8001","survey-text","38","581288","0.0-5.0-1.21-0.21","54","1","2022-11-29 21:25:38","2df368f4e41f066fd1c82c297b4a1108","201.172.175.92","Mozilla/5.0 (Windows NT 10.0; Win64; x64) AppleWebKit/537.36 (KHTML, like Gecko) Chrome/107.0.0.0 Safari/537.36","WebKit","Chrome","107.0.0.0","Windows","10.0","","","35","",""
"109731","You drop a bowling ball on a piece of sushi <br> T&uacute tiras una bola de boliche a un pedazo de sushi","{""Q0"":1}","trial","8001","survey-likert","39","691025","0.0-5.0-0.22","54","1","2022-11-29 21:25:38","2df368f4e41f066fd1c82c297b4a1108","201.172.175.92","Mozilla/5.0 (Windows NT 10.0; Win64; x64) AppleWebKit/537.36 (KHTML, like Gecko) Chrome/107.0.0.0 Safari/537.36","WebKit","Chrome","107.0.0.0","Windows","10.0","[0]","","21","1",""
"15223","You drop a bowling ball on a piece of sushi <br> T&uacute tiras una bola de boliche a un pedazo de sushi","{""Q0"":""Tú dejas caer una bola de boliche sobre un pedazo de sushi.""}","low_rate","8001","survey-text","40","706264","0.0-5.0-1.22-0.22","54","1","2022-11-29 21:25:38","2df368f4e41f066fd1c82c297b4a1108","201.172.175.92","Mozilla/5.0 (Windows NT 10.0; Win64; x64) AppleWebKit/537.36 (KHTML, like Gecko) Chrome/107.0.0.0 Safari/537.36","WebKit","Chrome","107.0.0.0","Windows","10.0","","","21","",""
"8499","You drop a bowling ball on a cracker <br> T&uacute tiras una bola de boliche a una galleta","{""Q0"":1}","trial","8001","survey-likert","41","714769","0.0-5.0-0.23","54","1","2022-11-29 21:25:38","2df368f4e41f066fd1c82c297b4a1108","201.172.175.92","Mozilla/5.0 (Windows NT 10.0; Win64; x64) AppleWebKit/537.36 (KHTML, like Gecko) Chrome/107.0.0.0 Safari/537.36","WebKit","Chrome","107.0.0.0","Windows","10.0","[0]","","4","1",""
"10916","You drop a bowling ball on a cracker <br> T&uacute tiras una bola de boliche a una galleta","{""Q0"":""Tú dejas caer una bola de boliche en una galleta.""}","low_rate","8001","survey-text","42","725702","0.0-5.0-1.23-0.23","54","1","2022-11-29 21:25:38","2df368f4e41f066fd1c82c297b4a1108","201.172.175.92","Mozilla/5.0 (Windows NT 10.0; Win64; x64) AppleWebKit/537.36 (KHTML, like Gecko) Chrome/107.0.0.0 Safari/537.36","WebKit","Chrome","107.0.0.0","Windows","10.0","","","4","",""
"18782","You drop a watch on the laptop <br> T&uacute tiras un reloj al port&aacutetil","{""Q0"":1}","trial","8001","survey-likert","43","744489","0.0-5.0-0.24","54","1","2022-11-29 21:25:38","2df368f4e41f066fd1c82c297b4a1108","201.172.175.92","Mozilla/5.0 (Windows NT 10.0; Win64; x64) AppleWebKit/537.36 (KHTML, like Gecko) Chrome/107.0.0.0 Safari/537.36","WebKit","Chrome","107.0.0.0","Windows","10.0","[0]","","37","1",""
"11847","You drop a watch on the laptop <br> T&uacute tiras un reloj al port&aacutetil","{""Q0"":""Tú dejas caer un reloj sobre el portátil.""}","low_rate","8001","survey-text","44","756353","0.0-5.0-1.24-0.24","54","1","2022-11-29 21:25:38","2df368f4e41f066fd1c82c297b4a1108","201.172.175.92","Mozilla/5.0 (Windows NT 10.0; Win64; x64) AppleWebKit/537.36 (KHTML, like Gecko) Chrome/107.0.0.0 Safari/537.36","WebKit","Chrome","107.0.0.0","Windows","10.0","","","37","",""
"7274","You drop a bowling ball on a strawberry <br> T&uacute tiras una bola de boliche a una fresa","{""Q0"":1}","trial","8001","survey-likert","45","763633","0.0-5.0-0.25","54","1","2022-11-29 21:25:38","2df368f4e41f066fd1c82c297b4a1108","201.172.175.92","Mozilla/5.0 (Windows NT 10.0; Win64; x64) AppleWebKit/537.36 (KHTML, like Gecko) Chrome/107.0.0.0 Safari/537.36","WebKit","Chrome","107.0.0.0","Windows","10.0","[0]","","20","1",""
"12299","You drop a bowling ball on a strawberry <br> T&uacute tiras una bola de boliche a una fresa","{""Q0"":""Tú dejas caer una bola de boliche sobre una fresa.""}","low_rate","8001","survey-text","46","775953","0.0-5.0-1.25-0.25","54","1","2022-11-29 21:25:38","2df368f4e41f066fd1c82c297b4a1108","201.172.175.92","Mozilla/5.0 (Windows NT 10.0; Win64; x64) AppleWebKit/537.36 (KHTML, like Gecko) Chrome/107.0.0.0 Safari/537.36","WebKit","Chrome","107.0.0.0","Windows","10.0","","","20","",""
"12207","You see how an owl is sitting on the branch <br> T&uacute ves como un b&uacuteho est&aacute reposando en una rama","{""Q0"":4}","trial","8001","survey-likert","47","788165","0.0-5.0-0.26","54","1","2022-11-29 21:25:38","2df368f4e41f066fd1c82c297b4a1108","201.172.175.92","Mozilla/5.0 (Windows NT 10.0; Win64; x64) AppleWebKit/537.36 (KHTML, like Gecko) Chrome/107.0.0.0 Safari/537.36","WebKit","Chrome","107.0.0.0","Windows","10.0","[0]","","69","4",""
"18821","You drop a bowling ball on a blackberry <br> T&uacute tiras una bola de boliche a una mora","{""Q0"":1}","trial","8001","survey-likert","48","807000","0.0-5.0-0.27","54","1","2022-11-29 21:25:38","2df368f4e41f066fd1c82c297b4a1108","201.172.175.92","Mozilla/5.0 (Windows NT 10.0; Win64; x64) AppleWebKit/537.36 (KHTML, like Gecko) Chrome/107.0.0.0 Safari/537.36","WebKit","Chrome","107.0.0.0","Windows","10.0","[0]","","8","1",""
"12673","You drop a bowling ball on a blackberry <br> T&uacute tiras una bola de boliche a una mora","{""Q0"":""Tú dejas caer una bola de boliche sobre una mora.""}","low_rate","8001","survey-text","49","819693","0.0-5.0-1.27-0.27","54","1","2022-11-29 21:25:38","2df368f4e41f066fd1c82c297b4a1108","201.172.175.92","Mozilla/5.0 (Windows NT 10.0; Win64; x64) AppleWebKit/537.36 (KHTML, like Gecko) Chrome/107.0.0.0 Safari/537.36","WebKit","Chrome","107.0.0.0","Windows","10.0","","","8","",""
"7508","You see how a photographer is taking a photo of a lion <br> T&uacute ves como un fot&oacutegrafo est&aacute tomando una foto de un le&oacuten","{""Q0"":4}","trial","8001","survey-likert","50","827209","0.0-5.0-0.28","54","1","2022-11-29 21:25:38","2df368f4e41f066fd1c82c297b4a1108","201.172.175.92","Mozilla/5.0 (Windows NT 10.0; Win64; x64) AppleWebKit/537.36 (KHTML, like Gecko) Chrome/107.0.0.0 Safari/537.36","WebKit","Chrome","107.0.0.0","Windows","10.0","[0]","","72","4",""
"6558","You drop a bowling ball on a paper cup <br> T&uacute tiras una bola de boliche a un vaso de papel","{""Q0"":1}","trial","8001","survey-likert","51","833784","0.0-5.0-0.29","54","1","2022-11-29 21:25:38","2df368f4e41f066fd1c82c297b4a1108","201.172.175.92","Mozilla/5.0 (Windows NT 10.0; Win64; x64) AppleWebKit/537.36 (KHTML, like Gecko) Chrome/107.0.0.0 Safari/537.36","WebKit","Chrome","107.0.0.0","Windows","10.0","[0]","","24","1",""
"12632","You drop a bowling ball on a paper cup <br> T&uacute tiras una bola de boliche a un vaso de papel","{""Q0"":""Tú dejas caer una bola de boliche sobre un vaso de papel.""}","low_rate","8001","survey-text","52","846434","0.0-5.0-1.29-0.29","54","1","2022-11-29 21:25:38","2df368f4e41f066fd1c82c297b4a1108","201.172.175.92","Mozilla/5.0 (Windows NT 10.0; Win64; x64) AppleWebKit/537.36 (KHTML, like Gecko) Chrome/107.0.0.0 Safari/537.36","WebKit","Chrome","107.0.0.0","Windows","10.0","","","24","",""
"15608","You drop a bowling ball on a piece of cake <br> T&uacute tiras una bola de boliche a un trozo de pastel","{""Q0"":1}","trial","8001","survey-likert","53","862049","0.0-5.0-0.30","54","1","2022-11-29 21:25:38","2df368f4e41f066fd1c82c297b4a1108","201.172.175.92","Mozilla/5.0 (Windows NT 10.0; Win64; x64) AppleWebKit/537.36 (KHTML, like Gecko) Chrome/107.0.0.0 Safari/537.36","WebKit","Chrome","107.0.0.0","Windows","10.0","[0]","","2","1",""
"25643","You drop a bowling ball on a piece of cake <br> T&uacute tiras una bola de boliche a un trozo de pastel","{""Q0"":""Tú dejas caer una bola de boliche sobre un pedazo de pastel.""}","low_rate","8001","survey-text","54","887705","0.0-5.0-1.30-0.30","54","1","2022-11-29 21:25:38","2df368f4e41f066fd1c82c297b4a1108","201.172.175.92","Mozilla/5.0 (Windows NT 10.0; Win64; x64) AppleWebKit/537.36 (KHTML, like Gecko) Chrome/107.0.0.0 Safari/537.36","WebKit","Chrome","107.0.0.0","Windows","10.0","","","2","",""
"4769","You see how a man is shaving his beard <br> T&uacute ves como un hombre se est&aacute afeitando la barba","{""Q0"":4}","trial","8001","survey-likert","55","892480","0.0-5.0-0.31","54","1","2022-11-29 21:25:38","2df368f4e41f066fd1c82c297b4a1108","201.172.175.92","Mozilla/5.0 (Windows NT 10.0; Win64; x64) AppleWebKit/537.36 (KHTML, like Gecko) Chrome/107.0.0.0 Safari/537.36","WebKit","Chrome","107.0.0.0","Windows","10.0","[0]","","43","4",""
"5331","You see how a boy is peeling a banana <br> T&uacute ves como un ni&ntildeo est&aacute pelando una banana","{""Q0"":4}","trial","8001","survey-likert","56","897827","0.0-5.0-0.32","54","1","2022-11-29 21:25:38","2df368f4e41f066fd1c82c297b4a1108","201.172.175.92","Mozilla/5.0 (Windows NT 10.0; Win64; x64) AppleWebKit/537.36 (KHTML, like Gecko) Chrome/107.0.0.0 Safari/537.36","WebKit","Chrome","107.0.0.0","Windows","10.0","[0]","","30","4",""
"19169","You see how an actress is taking a microphone <br> T&uacute ves como una actriz est&aacute agarrando el micr&oacutefono","{""Q0"":1}","trial","8001","survey-likert","57","917009","0.0-5.0-0.33","54","1","2022-11-29 21:25:38","2df368f4e41f066fd1c82c297b4a1108","201.172.175.92","Mozilla/5.0 (Windows NT 10.0; Win64; x64) AppleWebKit/537.36 (KHTML, like Gecko) Chrome/107.0.0.0 Safari/537.36","WebKit","Chrome","107.0.0.0","Windows","10.0","[0]","","51","1",""
"12257","You see how an actress is taking a microphone <br> T&uacute ves como una actriz est&aacute agarrando el micr&oacutefono","{""Q0"":""Tú vez como una actriz está agarrando un micrófono.""}","low_rate","8001","survey-text","58","929285","0.0-5.0-1.33-0.33","54","1","2022-11-29 21:25:38","2df368f4e41f066fd1c82c297b4a1108","201.172.175.92","Mozilla/5.0 (Windows NT 10.0; Win64; x64) AppleWebKit/537.36 (KHTML, like Gecko) Chrome/107.0.0.0 Safari/537.36","WebKit","Chrome","107.0.0.0","Windows","10.0","","","51","",""
"4656","You see how a zebra is playing with a horse <br> T&uacute ves como una cebra est&aacute jugando con un caballo","{""Q0"":4}","trial","8001","survey-likert","59","933946","0.0-5.0-0.34","54","1","2022-11-29 21:25:38","2df368f4e41f066fd1c82c297b4a1108","201.172.175.92","Mozilla/5.0 (Windows NT 10.0; Win64; x64) AppleWebKit/537.36 (KHTML, like Gecko) Chrome/107.0.0.0 Safari/537.36","WebKit","Chrome","107.0.0.0","Windows","10.0","[0]","","66","4",""
"8600","You see how a teenage girl is playing the piano <br> T&uacute ves como una ni&ntildea adolescente est&aacute tocando el piano","{""Q0"":4}","trial","8001","survey-likert","60","942562","0.0-5.0-0.35","54","1","2022-11-29 21:25:38","2df368f4e41f066fd1c82c297b4a1108","201.172.175.92","Mozilla/5.0 (Windows NT 10.0; Win64; x64) AppleWebKit/537.36 (KHTML, like Gecko) Chrome/107.0.0.0 Safari/537.36","WebKit","Chrome","107.0.0.0","Windows","10.0","[0]","","54","4",""
"6628","You see how a doctor is taking a stethoscope <br> T&uacute ves como un doctor est&aacute agarrando un estetoscopio","{""Q0"":4}","trial","8001","survey-likert","61","949208","0.0-5.0-0.36","54","1","2022-11-29 21:25:38","2df368f4e41f066fd1c82c297b4a1108","201.172.175.92","Mozilla/5.0 (Windows NT 10.0; Win64; x64) AppleWebKit/537.36 (KHTML, like Gecko) Chrome/107.0.0.0 Safari/537.36","WebKit","Chrome","107.0.0.0","Windows","10.0","[0]","","49","4",""
"10238","You drop a bowling ball on an egg flan <br> T&uacute tiras una bola de boliche a un flan","{""Q0"":1}","trial","8001","survey-likert","62","959459","0.0-5.0-0.37","54","1","2022-11-29 21:25:38","2df368f4e41f066fd1c82c297b4a1108","201.172.175.92","Mozilla/5.0 (Windows NT 10.0; Win64; x64) AppleWebKit/537.36 (KHTML, like Gecko) Chrome/107.0.0.0 Safari/537.36","WebKit","Chrome","107.0.0.0","Windows","10.0","[0]","","7","1",""
"15096","You drop a bowling ball on an egg flan <br> T&uacute tiras una bola de boliche a un flan","{""Q0"":""Tú dejas caer una bola de boliche sobre un flan.""}","low_rate","8001","survey-text","63","974572","0.0-5.0-1.37-0.37","54","1","2022-11-29 21:25:38","2df368f4e41f066fd1c82c297b4a1108","201.172.175.92","Mozilla/5.0 (Windows NT 10.0; Win64; x64) AppleWebKit/537.36 (KHTML, like Gecko) Chrome/107.0.0.0 Safari/537.36","WebKit","Chrome","107.0.0.0","Windows","10.0","","","7","",""
"4496","You see how an elephant is eating a watermelon <br> T&uacute ves como un elefante est&aacute comiendo una sand&iacutea","{""Q0"":4}","trial","8001","survey-likert","64","979075","0.0-5.0-0.38","54","1","2022-11-29 21:25:38","2df368f4e41f066fd1c82c297b4a1108","201.172.175.92","Mozilla/5.0 (Windows NT 10.0; Win64; x64) AppleWebKit/537.36 (KHTML, like Gecko) Chrome/107.0.0.0 Safari/537.36","WebKit","Chrome","107.0.0.0","Windows","10.0","[0]","","31","4",""
"25670","You see how a panda is resting on a tree <br> T&uacute ves como un panda est&aacute descansando en un &aacuterbol","{""Q0"":3}","trial","8001","survey-likert","65","1004761","0.0-5.0-0.39","54","1","2022-11-29 21:25:38","2df368f4e41f066fd1c82c297b4a1108","201.172.175.92","Mozilla/5.0 (Windows NT 10.0; Win64; x64) AppleWebKit/537.36 (KHTML, like Gecko) Chrome/107.0.0.0 Safari/537.36","WebKit","Chrome","107.0.0.0","Windows","10.0","[0]","","57","3",""
"9373","You see how an old man is hammering a nail <br> T&uacute ves como un hombre anciano est&aacute martillando un clavo","{""Q0"":4}","trial","8001","survey-likert","66","1014150","0.0-5.0-0.40","54","1","2022-11-29 21:25:38","2df368f4e41f066fd1c82c297b4a1108","201.172.175.92","Mozilla/5.0 (Windows NT 10.0; Win64; x64) AppleWebKit/537.36 (KHTML, like Gecko) Chrome/107.0.0.0 Safari/537.36","WebKit","Chrome","107.0.0.0","Windows","10.0","[0]","","29","4",""
"6680","You see how a pilot is reading a book <br> T&uacute ves como un piloto est&aacute leyendo un libro","{""Q0"":4}","trial","8001","survey-likert","67","1020846","0.0-5.0-0.41","54","1","2022-11-29 21:25:38","2df368f4e41f066fd1c82c297b4a1108","201.172.175.92","Mozilla/5.0 (Windows NT 10.0; Win64; x64) AppleWebKit/537.36 (KHTML, like Gecko) Chrome/107.0.0.0 Safari/537.36","WebKit","Chrome","107.0.0.0","Windows","10.0","[0]","","61","4",""
"17823","You drop a remote on the rug <br> T&uacute tiras un control remoto a la alfombra","{""Q0"":1}","trial","8001","survey-likert","68","1038684","0.0-5.0-0.42","54","1","2022-11-29 21:25:38","2df368f4e41f066fd1c82c297b4a1108","201.172.175.92","Mozilla/5.0 (Windows NT 10.0; Win64; x64) AppleWebKit/537.36 (KHTML, like Gecko) Chrome/107.0.0.0 Safari/537.36","WebKit","Chrome","107.0.0.0","Windows","10.0","[0]","","39","1",""
"12057","You drop a remote on the rug <br> T&uacute tiras un control remoto a la alfombra","{""Q0"":""Tú dejas caer un control remoto sobre la alfombra.""}","low_rate","8001","survey-text","69","1050761","0.0-5.0-1.42-0.42","54","1","2022-11-29 21:25:38","2df368f4e41f066fd1c82c297b4a1108","201.172.175.92","Mozilla/5.0 (Windows NT 10.0; Win64; x64) AppleWebKit/537.36 (KHTML, like Gecko) Chrome/107.0.0.0 Safari/537.36","WebKit","Chrome","107.0.0.0","Windows","10.0","","","39","",""
"11181","You drop a bowling ball on a tile <br> T&uacute tiras una bola de boliche a una baldosa","{""Q0"":1}","trial","8001","survey-likert","70","1061949","0.0-5.0-0.43","54","1","2022-11-29 21:25:38","2df368f4e41f066fd1c82c297b4a1108","201.172.175.92","Mozilla/5.0 (Windows NT 10.0; Win64; x64) AppleWebKit/537.36 (KHTML, like Gecko) Chrome/107.0.0.0 Safari/537.36","WebKit","Chrome","107.0.0.0","Windows","10.0","[0]","","22","1",""
"13533","You drop a bowling ball on a tile <br> T&uacute tiras una bola de boliche a una baldosa","{""Q0"":""Tú dejas caer una bola de boliche en una baldosa.""}","low_rate","8001","survey-text","71","1075501","0.0-5.0-1.43-0.43","54","1","2022-11-29 21:25:38","2df368f4e41f066fd1c82c297b4a1108","201.172.175.92","Mozilla/5.0 (Windows NT 10.0; Win64; x64) AppleWebKit/537.36 (KHTML, like Gecko) Chrome/107.0.0.0 Safari/537.36","WebKit","Chrome","107.0.0.0","Windows","10.0","","","22","",""
"4672","You see how a student is writing on a board <br> T&uacute ves como un estudiante est&aacute escribiendo en la pizarra","{""Q0"":4}","trial","8001","survey-likert","72","1080180","0.0-5.0-0.44","54","1","2022-11-29 21:25:38","2df368f4e41f066fd1c82c297b4a1108","201.172.175.92","Mozilla/5.0 (Windows NT 10.0; Win64; x64) AppleWebKit/537.36 (KHTML, like Gecko) Chrome/107.0.0.0 Safari/537.36","WebKit","Chrome","107.0.0.0","Windows","10.0","[0]","","50","4",""
"10604","You drop a bowling ball on a chocolate ice-cream <br> T&uacute tiras una bola de boliche a un helado de chocolate","{""Q0"":1}","trial","8001","survey-likert","73","1090802","0.0-5.0-0.45","54","1","2022-11-29 21:25:38","2df368f4e41f066fd1c82c297b4a1108","201.172.175.92","Mozilla/5.0 (Windows NT 10.0; Win64; x64) AppleWebKit/537.36 (KHTML, like Gecko) Chrome/107.0.0.0 Safari/537.36","WebKit","Chrome","107.0.0.0","Windows","10.0","[0]","","11","1",""
"12565","You drop a bowling ball on a chocolate ice-cream <br> T&uacute tiras una bola de boliche a un helado de chocolate","{""Q0"":""Tú dejas caer una bola de boliche sobre un helado de chocolate.""}","low_rate","8001","survey-text","74","1103388","0.0-5.0-1.45-0.45","54","1","2022-11-29 21:25:38","2df368f4e41f066fd1c82c297b4a1108","201.172.175.92","Mozilla/5.0 (Windows NT 10.0; Win64; x64) AppleWebKit/537.36 (KHTML, like Gecko) Chrome/107.0.0.0 Safari/537.36","WebKit","Chrome","107.0.0.0","Windows","10.0","","","11","",""
"9583","You see how a woman is taking money out of a wallet <br> T&uacute ves como una mujer est&aacute sacando dinero de su billetera","{""Q0"":3}","trial","8001","survey-likert","75","1112976","0.0-5.0-0.46","54","1","2022-11-29 21:25:38","2df368f4e41f066fd1c82c297b4a1108","201.172.175.92","Mozilla/5.0 (Windows NT 10.0; Win64; x64) AppleWebKit/537.36 (KHTML, like Gecko) Chrome/107.0.0.0 Safari/537.36","WebKit","Chrome","107.0.0.0","Windows","10.0","[0]","","44","3",""
"8012","You drop a bowling ball on a light bulb <br> T&uacute tiras una bola de boliche a una bombilla","{""Q0"":1}","trial","8001","survey-likert","76","1121004","0.0-5.0-0.47","54","1","2022-11-29 21:25:38","2df368f4e41f066fd1c82c297b4a1108","201.172.175.92","Mozilla/5.0 (Windows NT 10.0; Win64; x64) AppleWebKit/537.36 (KHTML, like Gecko) Chrome/107.0.0.0 Safari/537.36","WebKit","Chrome","107.0.0.0","Windows","10.0","[0]","","14","1",""
"10757","You drop a bowling ball on a light bulb <br> T&uacute tiras una bola de boliche a una bombilla","{""Q0"":""Tú dejas caer una bola de boliche sobre una bombilla.""}","low_rate","8001","survey-text","77","1131781","0.0-5.0-1.47-0.47","54","1","2022-11-29 21:25:38","2df368f4e41f066fd1c82c297b4a1108","201.172.175.92","Mozilla/5.0 (Windows NT 10.0; Win64; x64) AppleWebKit/537.36 (KHTML, like Gecko) Chrome/107.0.0.0 Safari/537.36","WebKit","Chrome","107.0.0.0","Windows","10.0","","","14","",""
"34781","You drop a needle on the mouse pad <br> T&uacute tiras una aguja a la alfombrilla para el rat&oacuten","{""Q0"":1}","trial","8001","survey-likert","78","1166568","0.0-5.0-0.48","54","1","2022-11-29 21:25:38","2df368f4e41f066fd1c82c297b4a1108","201.172.175.92","Mozilla/5.0 (Windows NT 10.0; Win64; x64) AppleWebKit/537.36 (KHTML, like Gecko) Chrome/107.0.0.0 Safari/537.36","WebKit","Chrome","107.0.0.0","Windows","10.0","[0]","","42","1",""
"16390","You drop a needle on the mouse pad <br> T&uacute tiras una aguja a la alfombrilla para el rat&oacuten","{""Q0"":""Se te cae una aguja sobre la alfombrilla para el ratón.""}","low_rate","8001","survey-text","79","1182974","0.0-5.0-1.48-0.48","54","1","2022-11-29 21:25:38","2df368f4e41f066fd1c82c297b4a1108","201.172.175.92","Mozilla/5.0 (Windows NT 10.0; Win64; x64) AppleWebKit/537.36 (KHTML, like Gecko) Chrome/107.0.0.0 Safari/537.36","WebKit","Chrome","107.0.0.0","Windows","10.0","","","42","",""
"8050","You see how a hairdresser is taking scissors <br> T&uacute ves como una peluquera est&aacute agarrando las tijeras","{""Q0"":3}","trial","8001","survey-likert","80","1191032","0.0-5.0-0.49","54","1","2022-11-29 21:25:38","2df368f4e41f066fd1c82c297b4a1108","201.172.175.92","Mozilla/5.0 (Windows NT 10.0; Win64; x64) AppleWebKit/537.36 (KHTML, like Gecko) Chrome/107.0.0.0 Safari/537.36","WebKit","Chrome","107.0.0.0","Windows","10.0","[0]","","60","3",""
"5533","You drop a bowling ball on a mirror <br> T&uacute tiras una bola de boliche a un espejo","{""Q0"":1}","trial","8001","survey-likert","81","1196581","0.0-5.0-0.50","54","1","2022-11-29 21:25:38","2df368f4e41f066fd1c82c297b4a1108","201.172.175.92","Mozilla/5.0 (Windows NT 10.0; Win64; x64) AppleWebKit/537.36 (KHTML, like Gecko) Chrome/107.0.0.0 Safari/537.36","WebKit","Chrome","107.0.0.0","Windows","10.0","[0]","","15","1",""
"13444","You drop a bowling ball on a mirror <br> T&uacute tiras una bola de boliche a un espejo","{""Q0"":""Tú dejas caer una bola de boliche sobre un espejo.""}","low_rate","8001","survey-text","82","1210042","0.0-5.0-1.50-0.50","54","1","2022-11-29 21:25:38","2df368f4e41f066fd1c82c297b4a1108","201.172.175.92","Mozilla/5.0 (Windows NT 10.0; Win64; x64) AppleWebKit/537.36 (KHTML, like Gecko) Chrome/107.0.0.0 Safari/537.36","WebKit","Chrome","107.0.0.0","Windows","10.0","","","15","",""
"17749","You see how a man is boiling potatoes <br> T&uacute ves a un hombre est&aacute hirviendo papas","{""Q0"":1}","trial","8001","survey-likert","83","1227798","0.0-5.0-0.51","54","1","2022-11-29 21:25:38","2df368f4e41f066fd1c82c297b4a1108","201.172.175.92","Mozilla/5.0 (Windows NT 10.0; Win64; x64) AppleWebKit/537.36 (KHTML, like Gecko) Chrome/107.0.0.0 Safari/537.36","WebKit","Chrome","107.0.0.0","Windows","10.0","[0]","","46","1",""
"11494","You see how a man is boiling potatoes <br> T&uacute ves a un hombre est&aacute hirviendo papas","{""Q0"":""Tú ves cómo un hombre está hirviendo papas.""}","low_rate","8001","survey-text","84","1239312","0.0-5.0-1.51-0.51","54","1","2022-11-29 21:25:38","2df368f4e41f066fd1c82c297b4a1108","201.172.175.92","Mozilla/5.0 (Windows NT 10.0; Win64; x64) AppleWebKit/537.36 (KHTML, like Gecko) Chrome/107.0.0.0 Safari/537.36","WebKit","Chrome","107.0.0.0","Windows","10.0","","","46","",""
"17505","You see how a mouse is eating cheese <br> T&uacute ves como el rat&oacuten est&aacute comiendo queso","{""Q0"":3}","trial","8001","survey-likert","85","1256824","0.0-5.0-0.52","54","1","2022-11-29 21:25:38","2df368f4e41f066fd1c82c297b4a1108","201.172.175.92","Mozilla/5.0 (Windows NT 10.0; Win64; x64) AppleWebKit/537.36 (KHTML, like Gecko) Chrome/107.0.0.0 Safari/537.36","WebKit","Chrome","107.0.0.0","Windows","10.0","[0]","","56","3",""
"9048","You see how a musician is playing a guitar <br> T&uacute ves como un m&uacutesico est&aacute tocando la guitarra","{""Q0"":3}","trial","8001","survey-likert","86","1265889","0.0-5.0-0.53","54","1","2022-11-29 21:25:38","2df368f4e41f066fd1c82c297b4a1108","201.172.175.92","Mozilla/5.0 (Windows NT 10.0; Win64; x64) AppleWebKit/537.36 (KHTML, like Gecko) Chrome/107.0.0.0 Safari/537.36","WebKit","Chrome","107.0.0.0","Windows","10.0","[0]","","27","3",""
"17354","You drop a bowling ball on a rice cake <br> T&uacute tiras una bola de boliche a una tortita de arroz","{""Q0"":1}","trial","8001","survey-likert","87","1283262","0.0-5.0-0.54","54","1","2022-11-29 21:25:38","2df368f4e41f066fd1c82c297b4a1108","201.172.175.92","Mozilla/5.0 (Windows NT 10.0; Win64; x64) AppleWebKit/537.36 (KHTML, like Gecko) Chrome/107.0.0.0 Safari/537.36","WebKit","Chrome","107.0.0.0","Windows","10.0","[0]","","18","1",""
"13488","You drop a bowling ball on a rice cake <br> T&uacute tiras una bola de boliche a una tortita de arroz","{""Q0"":""Tú dejas caer una bola de boliche sobre una tortita de arroz.""}","low_rate","8001","survey-text","88","1296770","0.0-5.0-1.54-0.54","54","1","2022-11-29 21:25:38","2df368f4e41f066fd1c82c297b4a1108","201.172.175.92","Mozilla/5.0 (Windows NT 10.0; Win64; x64) AppleWebKit/537.36 (KHTML, like Gecko) Chrome/107.0.0.0 Safari/537.36","WebKit","Chrome","107.0.0.0","Windows","10.0","","","18","",""
"7470","You see how a kitten is playing in the sandbox <br> T&uacute ves como un gatito est&aacute jugando en la caja de arena","{""Q0"":4}","trial","8001","survey-likert","89","1304247","0.0-5.0-0.55","54","1","2022-11-29 21:25:38","2df368f4e41f066fd1c82c297b4a1108","201.172.175.92","Mozilla/5.0 (Windows NT 10.0; Win64; x64) AppleWebKit/537.36 (KHTML, like Gecko) Chrome/107.0.0.0 Safari/537.36","WebKit","Chrome","107.0.0.0","Windows","10.0","[0]","","52","4",""
"10450","You drop a bowling ball on a ceramic plate <br> T&uacute tiras una bola de boliche a un plato de cer&aacutemica","{""Q0"":1}","trial","8001","survey-likert","90","1314713","0.0-5.0-0.56","54","1","2022-11-29 21:25:38","2df368f4e41f066fd1c82c297b4a1108","201.172.175.92","Mozilla/5.0 (Windows NT 10.0; Win64; x64) AppleWebKit/537.36 (KHTML, like Gecko) Chrome/107.0.0.0 Safari/537.36","WebKit","Chrome","107.0.0.0","Windows","10.0","[0]","","19","1",""
"13707","You drop a bowling ball on a ceramic plate <br> T&uacute tiras una bola de boliche a un plato de cer&aacutemica","{""Q0"":""Tú dejas caer una bola de boliche sobre un plato de cerámica.""}","low_rate","8001","survey-text","91","1328440","0.0-5.0-1.56-0.56","54","1","2022-11-29 21:25:38","2df368f4e41f066fd1c82c297b4a1108","201.172.175.92","Mozilla/5.0 (Windows NT 10.0; Win64; x64) AppleWebKit/537.36 (KHTML, like Gecko) Chrome/107.0.0.0 Safari/537.36","WebKit","Chrome","107.0.0.0","Windows","10.0","","","19","",""
"26581","You see how a butterfly is sitting on a flower <br> T&uacute ves como una mariposa est&aacute reposando en una flor","{""Q0"":1}","trial","8001","survey-likert","92","1355033","0.0-5.0-0.57","54","1","2022-11-29 21:25:38","2df368f4e41f066fd1c82c297b4a1108","201.172.175.92","Mozilla/5.0 (Windows NT 10.0; Win64; x64) AppleWebKit/537.36 (KHTML, like Gecko) Chrome/107.0.0.0 Safari/537.36","WebKit","Chrome","107.0.0.0","Windows","10.0","[0]","","59","1",""
"24597","You see how a butterfly is sitting on a flower <br> T&uacute ves como una mariposa est&aacute reposando en una flor","{""Q0"":""En vez de \""en\"" pondría \""sobre\"".""}","low_rate","8001","survey-text","93","1379648","0.0-5.0-1.57-0.57","54","1","2022-11-29 21:25:38","2df368f4e41f066fd1c82c297b4a1108","201.172.175.92","Mozilla/5.0 (Windows NT 10.0; Win64; x64) AppleWebKit/537.36 (KHTML, like Gecko) Chrome/107.0.0.0 Safari/537.36","WebKit","Chrome","107.0.0.0","Windows","10.0","","","59","",""
"8090","You see how a puppy is playing with a ball <br> T&uacute ves como un cachorro est&aacute jugando con una pelota","{""Q0"":4}","trial","8001","survey-likert","94","1387748","0.0-5.0-0.58","54","1","2022-11-29 21:25:38","2df368f4e41f066fd1c82c297b4a1108","201.172.175.92","Mozilla/5.0 (Windows NT 10.0; Win64; x64) AppleWebKit/537.36 (KHTML, like Gecko) Chrome/107.0.0.0 Safari/537.36","WebKit","Chrome","107.0.0.0","Windows","10.0","[0]","","34","4",""
"17372","You drop a thermometer on the box <br> T&uacute tiras un term&oacutemetro a la caja","{""Q0"":3}","trial","8001","survey-likert","95","1405138","0.0-5.0-0.59","54","1","2022-11-29 21:25:38","2df368f4e41f066fd1c82c297b4a1108","201.172.175.92","Mozilla/5.0 (Windows NT 10.0; Win64; x64) AppleWebKit/537.36 (KHTML, like Gecko) Chrome/107.0.0.0 Safari/537.36","WebKit","Chrome","107.0.0.0","Windows","10.0","[0]","","70","3",""
"5375","You see how a thief is stealing a wallet <br> T&uacute ves como un ladr&oacuten est&aacute robando una billetera","{""Q0"":4}","trial","8001","survey-likert","96","1410531","0.0-5.0-0.60","54","1","2022-11-29 21:25:38","2df368f4e41f066fd1c82c297b4a1108","201.172.175.92","Mozilla/5.0 (Windows NT 10.0; Win64; x64) AppleWebKit/537.36 (KHTML, like Gecko) Chrome/107.0.0.0 Safari/537.36","WebKit","Chrome","107.0.0.0","Windows","10.0","[0]","","68","4",""
"6718","You see how a police officer is talking on the phone <br> T&uacute ves como un polic&iacutea est&aacute hablando por el tel&eacutefono","{""Q0"":4}","trial","8001","survey-likert","97","1417262","0.0-5.0-0.61","54","1","2022-11-29 21:25:38","2df368f4e41f066fd1c82c297b4a1108","201.172.175.92","Mozilla/5.0 (Windows NT 10.0; Win64; x64) AppleWebKit/537.36 (KHTML, like Gecko) Chrome/107.0.0.0 Safari/537.36","WebKit","Chrome","107.0.0.0","Windows","10.0","[0]","","62","4",""
"10358","You see how a nurse is taking a syringe <br> T&uacute ves como una enfermera est&aacute agarrando una jeringuilla","{""Q0"":4}","trial","8001","survey-likert","98","1427638","0.0-5.0-0.62","54","1","2022-11-29 21:25:38","2df368f4e41f066fd1c82c297b4a1108","201.172.175.92","Mozilla/5.0 (Windows NT 10.0; Win64; x64) AppleWebKit/537.36 (KHTML, like Gecko) Chrome/107.0.0.0 Safari/537.36","WebKit","Chrome","107.0.0.0","Windows","10.0","[0]","","48","4",""
"7842","You see how a postman is driving a car <br> T&uacute ves como un cartero est&aacute conduciendo un coche","{""Q0"":4}","trial","8001","survey-likert","99","1435498","0.0-5.0-0.63","54","1","2022-11-29 21:25:38","2df368f4e41f066fd1c82c297b4a1108","201.172.175.92","Mozilla/5.0 (Windows NT 10.0; Win64; x64) AppleWebKit/537.36 (KHTML, like Gecko) Chrome/107.0.0.0 Safari/537.36","WebKit","Chrome","107.0.0.0","Windows","10.0","[0]","","32","4",""
"6183","You see how a parrot is eating an apple <br> T&uacute ves como un loro est&aacute comiendo una manzana","{""Q0"":4}","trial","8001","survey-likert","100","1441697","0.0-5.0-0.64","54","1","2022-11-29 21:25:38","2df368f4e41f066fd1c82c297b4a1108","201.172.175.92","Mozilla/5.0 (Windows NT 10.0; Win64; x64) AppleWebKit/537.36 (KHTML, like Gecko) Chrome/107.0.0.0 Safari/537.36","WebKit","Chrome","107.0.0.0","Windows","10.0","[0]","","58","4",""
"23212","You drop a towel on the TV <br> T&uacute tiras una toalla a la televisi&oacuten","{""Q0"":1}","trial","8001","survey-likert","101","1464928","0.0-5.0-0.65","54","1","2022-11-29 21:25:38","2df368f4e41f066fd1c82c297b4a1108","201.172.175.92","Mozilla/5.0 (Windows NT 10.0; Win64; x64) AppleWebKit/537.36 (KHTML, like Gecko) Chrome/107.0.0.0 Safari/537.36","WebKit","Chrome","107.0.0.0","Windows","10.0","[0]","","53","1",""
"11715","You drop a towel on the TV <br> T&uacute tiras una toalla a la televisi&oacuten","{""Q0"":""Tú tiras una toalla sobre la televisión.""}","low_rate","8001","survey-text","102","1476668","0.0-5.0-1.65-0.65","54","1","2022-11-29 21:25:38","2df368f4e41f066fd1c82c297b4a1108","201.172.175.92","Mozilla/5.0 (Windows NT 10.0; Win64; x64) AppleWebKit/537.36 (KHTML, like Gecko) Chrome/107.0.0.0 Safari/537.36","WebKit","Chrome","107.0.0.0","Windows","10.0","","","53","",""
"12456","You drop a keyboard on the bed <br> T&uacute tiras un teclado a la cama","{""Q0"":3}","trial","8001","survey-likert","103","1489131","0.0-5.0-0.66","54","1","2022-11-29 21:25:38","2df368f4e41f066fd1c82c297b4a1108","201.172.175.92","Mozilla/5.0 (Windows NT 10.0; Win64; x64) AppleWebKit/537.36 (KHTML, like Gecko) Chrome/107.0.0.0 Safari/537.36","WebKit","Chrome","107.0.0.0","Windows","10.0","[0]","","36","3",""
"5136","You see how a cook is taking a knife <br> T&uacute ves como un cocinero est&aacute agarrando un cuchillo","{""Q0"":4}","trial","8001","survey-likert","104","1494285","0.0-5.0-0.67","54","1","2022-11-29 21:25:38","2df368f4e41f066fd1c82c297b4a1108","201.172.175.92","Mozilla/5.0 (Windows NT 10.0; Win64; x64) AppleWebKit/537.36 (KHTML, like Gecko) Chrome/107.0.0.0 Safari/537.36","WebKit","Chrome","107.0.0.0","Windows","10.0","[0]","","71","4",""
"10324","You see how a cat is drinking water from a bowl <br> T&uacute ves como un gato est&aacute bebiendo agua de un cuenco","{""Q0"":4}","trial","8001","survey-likert","105","1504629","0.0-5.0-0.68","54","1","2022-11-29 21:25:38","2df368f4e41f066fd1c82c297b4a1108","201.172.175.92","Mozilla/5.0 (Windows NT 10.0; Win64; x64) AppleWebKit/537.36 (KHTML, like Gecko) Chrome/107.0.0.0 Safari/537.36","WebKit","Chrome","107.0.0.0","Windows","10.0","[0]","","28","4",""
"7105","You drop a bowling ball on an empty can of beer <br> T&uacute tiras una bola de boliche a una lata de cerveza vac&iacutea","{""Q0"":1}","trial","8001","survey-likert","106","1511752","0.0-5.0-0.69","54","1","2022-11-29 21:25:38","2df368f4e41f066fd1c82c297b4a1108","201.172.175.92","Mozilla/5.0 (Windows NT 10.0; Win64; x64) AppleWebKit/537.36 (KHTML, like Gecko) Chrome/107.0.0.0 Safari/537.36","WebKit","Chrome","107.0.0.0","Windows","10.0","[0]","","3","1",""
"13693","You drop a bowling ball on an empty can of beer <br> T&uacute tiras una bola de boliche a una lata de cerveza vac&iacutea","{""Q0"":""Tú tiras una bola de boliche sobre una lata de cerveza vacía.""}","low_rate","8001","survey-text","107","1525465","0.0-5.0-1.69-0.69","54","1","2022-11-29 21:25:38","2df368f4e41f066fd1c82c297b4a1108","201.172.175.92","Mozilla/5.0 (Windows NT 10.0; Win64; x64) AppleWebKit/537.36 (KHTML, like Gecko) Chrome/107.0.0.0 Safari/537.36","WebKit","Chrome","107.0.0.0","Windows","10.0","","","3","",""
"8121","You drop a toothbrush on the sponge <br> T&uacute tiras un cepillo de dientes en la esponja","{""Q0"":1}","trial","8001","survey-likert","108","1533596","0.0-5.0-0.70","54","1","2022-11-29 21:25:38","2df368f4e41f066fd1c82c297b4a1108","201.172.175.92","Mozilla/5.0 (Windows NT 10.0; Win64; x64) AppleWebKit/537.36 (KHTML, like Gecko) Chrome/107.0.0.0 Safari/537.36","WebKit","Chrome","107.0.0.0","Windows","10.0","[0]","","25","1",""
"10348","You drop a toothbrush on the sponge <br> T&uacute tiras un cepillo de dientes en la esponja","{""Q0"":""Tú tiras un cepillo de dientes sobre la esponja.""}","low_rate","8001","survey-text","109","1543965","0.0-5.0-1.70-0.70","54","1","2022-11-29 21:25:38","2df368f4e41f066fd1c82c297b4a1108","201.172.175.92","Mozilla/5.0 (Windows NT 10.0; Win64; x64) AppleWebKit/537.36 (KHTML, like Gecko) Chrome/107.0.0.0 Safari/537.36","WebKit","Chrome","107.0.0.0","Windows","10.0","","","25","",""
"18041","You drop a bowling ball on glasses <br> T&uacute tiras una bola de boliche a unas gafas","{""Q0"":1}","trial","8001","survey-likert","110","1562014","0.0-5.0-0.71","54","1","2022-11-29 21:25:38","2df368f4e41f066fd1c82c297b4a1108","201.172.175.92","Mozilla/5.0 (Windows NT 10.0; Win64; x64) AppleWebKit/537.36 (KHTML, like Gecko) Chrome/107.0.0.0 Safari/537.36","WebKit","Chrome","107.0.0.0","Windows","10.0","[0]","","9","1",""
"12566","You drop a bowling ball on glasses <br> T&uacute tiras una bola de boliche a unas gafas","{""Q0"":""Tú dejas caer una bola de boliche sobre gafas.""}","low_rate","8001","survey-text","111","1574598","0.0-5.0-1.71-0.71","54","1","2022-11-29 21:25:38","2df368f4e41f066fd1c82c297b4a1108","201.172.175.92","Mozilla/5.0 (Windows NT 10.0; Win64; x64) AppleWebKit/537.36 (KHTML, like Gecko) Chrome/107.0.0.0 Safari/537.36","WebKit","Chrome","107.0.0.0","Windows","10.0","","","9","",""
"5279","
    <p style=""font-size:20px;""> You have completed the experiment portion! </p>
    <p style=""font-size:20px;""> Before you are done, we would like you to answer some basic demographic questions. </p>
    <p style=""font-size:20px;""> Note that your answers to these questions will not affect your compensation/credit. </p>
    <p style=""font-size:20px;""> Click the button below to continue.</p>
    ","0","demo","8001","html-button-response","112","1579889","0.0-6.0","54","1","2022-11-29 21:25:38","2df368f4e41f066fd1c82c297b4a1108","201.172.175.92","Mozilla/5.0 (Windows NT 10.0; Win64; x64) AppleWebKit/537.36 (KHTML, like Gecko) Chrome/107.0.0.0 Safari/537.36","WebKit","Chrome","107.0.0.0","Windows","10.0","","","","",""
"16743","","{""Age"":""24"",""Gender"":""Female"",""Education"":""16 ""}","demo","8001","survey-text","113","1596651","0.0-7.0-0.0","54","1","2022-11-29 21:25:38","2df368f4e41f066fd1c82c297b4a1108","201.172.175.92","Mozilla/5.0 (Windows NT 10.0; Win64; x64) AppleWebKit/537.36 (KHTML, like Gecko) Chrome/107.0.0.0 Safari/537.36","WebKit","Chrome","107.0.0.0","Windows","10.0","","","","",""
"11412","","{""Race"":[""Other""]}","demo","8001","survey-multi-select","114","1608084","0.0-7.0-1.0","54","1","2022-11-29 21:25:38","2df368f4e41f066fd1c82c297b4a1108","201.172.175.92","Mozilla/5.0 (Windows NT 10.0; Win64; x64) AppleWebKit/537.36 (KHTML, like Gecko) Chrome/107.0.0.0 Safari/537.36","WebKit","Chrome","107.0.0.0","Windows","10.0","[0]","","","",""
"10527","","{""Latino"":""Yes"",""Alert"":""Evening""}","demo","8001","survey-multi-choice","115","1618633","0.0-7.0-2.0","54","1","2022-11-29 21:25:38","2df368f4e41f066fd1c82c297b4a1108","201.172.175.92","Mozilla/5.0 (Windows NT 10.0; Win64; x64) AppleWebKit/537.36 (KHTML, like Gecko) Chrome/107.0.0.0 Safari/537.36","WebKit","Chrome","107.0.0.0","Windows","10.0","[0,1]","","","",""
"6665","","{""Q0"":""No""}","demo","8001","survey-text","116","1625320","0.0-7.0-3.0","54","1","2022-11-29 21:25:38","2df368f4e41f066fd1c82c297b4a1108","201.172.175.92","Mozilla/5.0 (Windows NT 10.0; Win64; x64) AppleWebKit/537.36 (KHTML, like Gecko) Chrome/107.0.0.0 Safari/537.36","WebKit","Chrome","107.0.0.0","Windows","10.0","","","","",""
"23152","<p>Thank you for participating! </p><strong>Your completion code is: CXEJB7NH. Please copy-paste this code and submit it on Prolific.</strong><p>Click <a href=""https://drive.google.com/file/d/1c70cdHFlc0AaR6RujLWLJwWkv1RbHQJY/view?usp=sharing"" target=""_blank"" rel=""noopener noreferrer"">here</a> to access the debriefing form and know more about our research. <p> Please click the button below to finish the experiment and save your data.</p> <p> IMPORTANT: Please <strong>do not leave this page </strong> without clicking the button below.</p> <p> You may close the tab/window after you click the button below.","0","","","html-button-response","117","1648482","0.0-8.0","54","1","2022-11-29 21:25:38","2df368f4e41f066fd1c82c297b4a1108","201.172.175.92","Mozilla/5.0 (Windows NT 10.0; Win64; x64) AppleWebKit/537.36 (KHTML, like Gecko) Chrome/107.0.0.0 Safari/537.36","WebKit","Chrome","107.0.0.0","Windows","10.0","","","","",""
