"rt","stimulus","response","typeoftrial","subject","trial_type","trial_index","time_elapsed","internal_node_id","run_id","condition","recorded_at","source_code_version","ip","user_agent","device","browser","browser_version","platform","platform_version","question_order","practice_rating","sentence_num","rating","Experiment"
"4579","
        <p style=""font-size:20px;""> Welcome! Thank you for your interest in our study. </p>
        <p style=""font-size:20px;""> This study is being conducted by researchers at Bowdoin College.</p>
        <p style=""font-size:20px;""> In this experiment, you will be asked to rate the accuracy of English and Spanish translations.</p>
        <p style=""font-size:20px;""> The entire experiment should not last more than 20 minutes. You will be paid $3 USD for your participation. </p>
        <p style=""font-size:20px;""> Please click <a href = ""https://drive.google.com/file/d/1L92a02eEKCpaAEipmqDcBCDR7rsarqFE/view?usp=sharing"" target = ""_blank"">here</a> to read the full consent form. </p>
        <p style=""font-size:20px;""> If you agree to participate, please click the button below to continue to experiment instructions.</p>
        ","0","consent","827","html-button-response","0","4581","0.0-0.0","47","1","2022-11-29 21:25:12","2df368f4e41f066fd1c82c297b4a1108","190.22.52.236","Mozilla/5.0 (Windows NT 10.0; Win64; x64) AppleWebKit/537.36 (KHTML, like Gecko) Chrome/107.0.0.0 Safari/537.36 Edg/107.0.1418.56","WebKit","Edge","107.0.1418.56","Windows","10.0","","","","",""
"5724","","{""ID"":""5f06adcc64da4e018096b019""}","ID","827","survey-text","1","10310","0.0-1.0","47","1","2022-11-29 21:25:12","2df368f4e41f066fd1c82c297b4a1108","190.22.52.236","Mozilla/5.0 (Windows NT 10.0; Win64; x64) AppleWebKit/537.36 (KHTML, like Gecko) Chrome/107.0.0.0 Safari/537.36 Edg/107.0.1418.56","WebKit","Edge","107.0.1418.56","Windows","10.0","","","","",""
"3186","
        <p style=""font-size:20px;""> You are about to begin the practice test. </p>
        <p style=""font-size:20px;""> On each trial, you will see a sentence in English and its corresponding Spanish translation. </p>
        <p style=""font-size:20px;""> You will rate the accuracy of the translation on a scale from ""Not at all accurate"" to ""Very accurate."" </p>
        <p style=""font-size:20px;""> If you rate the translation as ""Somewhat innaccurate"" or ""Not at all accurate,"" you will be asked to provide your own translation or a reason why the translation is inaccurate. </p>
        <p style=""font-size:20px;""> Click the button below to continue to the practice session.</p>","0","instructions","827","html-button-response","2","13498","0.0-2.0","47","1","2022-11-29 21:25:12","2df368f4e41f066fd1c82c297b4a1108","190.22.52.236","Mozilla/5.0 (Windows NT 10.0; Win64; x64) AppleWebKit/537.36 (KHTML, like Gecko) Chrome/107.0.0.0 Safari/537.36 Edg/107.0.1418.56","WebKit","Edge","107.0.1418.56","Windows","10.0","","","","",""
"16134","You see how an artist is running <br> T&uacute ves como un artista est&aacute corriendo","{""Q0"":4}","practice","827","survey-likert","3","29634","0.0-3.0-0.0","47","1","2022-11-29 21:25:12","2df368f4e41f066fd1c82c297b4a1108","190.22.52.236","Mozilla/5.0 (Windows NT 10.0; Win64; x64) AppleWebKit/537.36 (KHTML, like Gecko) Chrome/107.0.0.0 Safari/537.36 Edg/107.0.1418.56","WebKit","Edge","107.0.1418.56","Windows","10.0","[0]","4","","",""
"8832","You see how a duck is playing with a pumpkin <br> T&uacute ves como un pato est&aacute jugando con una calabaza","{""Q0"":4}","practice","827","survey-likert","4","38472","0.0-3.0-0.1","47","1","2022-11-29 21:25:12","2df368f4e41f066fd1c82c297b4a1108","190.22.52.236","Mozilla/5.0 (Windows NT 10.0; Win64; x64) AppleWebKit/537.36 (KHTML, like Gecko) Chrome/107.0.0.0 Safari/537.36 Edg/107.0.1418.56","WebKit","Edge","107.0.1418.56","Windows","10.0","[0]","4","","",""
"11399","You drop a rock on a phone <br> T&uacute tiras una piedra a un tel&eacutefono","{""Q0"":3}","practice","827","survey-likert","5","49874","0.0-3.0-0.2","47","1","2022-11-29 21:25:12","2df368f4e41f066fd1c82c297b4a1108","190.22.52.236","Mozilla/5.0 (Windows NT 10.0; Win64; x64) AppleWebKit/537.36 (KHTML, like Gecko) Chrome/107.0.0.0 Safari/537.36 Edg/107.0.1418.56","WebKit","Edge","107.0.1418.56","Windows","10.0","[0]","3","","",""
"11991","You see how a teacher is drawing a picture <br> T&uacute ves como un maestro pinta una foto","{""Q0"":3}","practice","827","survey-likert","6","61870","0.0-3.0-0.3","47","1","2022-11-29 21:25:12","2df368f4e41f066fd1c82c297b4a1108","190.22.52.236","Mozilla/5.0 (Windows NT 10.0; Win64; x64) AppleWebKit/537.36 (KHTML, like Gecko) Chrome/107.0.0.0 Safari/537.36 Edg/107.0.1418.56","WebKit","Edge","107.0.1418.56","Windows","10.0","[0]","3","","",""
"5097","You see how a tiger is playing with a goose <br> T&uacute ves como un le&oacuten come una pizza","{""Q0"":0}","practice","827","survey-likert","7","66972","0.0-3.0-0.4","47","1","2022-11-29 21:25:12","2df368f4e41f066fd1c82c297b4a1108","190.22.52.236","Mozilla/5.0 (Windows NT 10.0; Win64; x64) AppleWebKit/537.36 (KHTML, like Gecko) Chrome/107.0.0.0 Safari/537.36 Edg/107.0.1418.56","WebKit","Edge","107.0.1418.56","Windows","10.0","[0]","0","","",""
"30601","You see how a tiger is playing with a goose <br> T&uacute ves como un le&oacuten come una pizza","{""Q0"":""Tu ves como un leon está jugando con un ganzo""}","practice_low_rate","827","survey-text","8","97578","0.0-3.0-1.4-0.4","47","1","2022-11-29 21:25:12","2df368f4e41f066fd1c82c297b4a1108","190.22.52.236","Mozilla/5.0 (Windows NT 10.0; Win64; x64) AppleWebKit/537.36 (KHTML, like Gecko) Chrome/107.0.0.0 Safari/537.36 Edg/107.0.1418.56","WebKit","Edge","107.0.1418.56","Windows","10.0","","","5","",""
"9222","You drop a bowling ball on a mircrowave <br> T&uacute tiras una bola de boliche a un horno","{""Q0"":3}","practice","827","survey-likert","9","106802","0.0-3.0-0.5","47","1","2022-11-29 21:25:12","2df368f4e41f066fd1c82c297b4a1108","190.22.52.236","Mozilla/5.0 (Windows NT 10.0; Win64; x64) AppleWebKit/537.36 (KHTML, like Gecko) Chrome/107.0.0.0 Safari/537.36 Edg/107.0.1418.56","WebKit","Edge","107.0.1418.56","Windows","10.0","[0]","3","","",""
"2283","<p style=""font-size:20px;"">You have now completed the practice session! </p>
        <p style=""font-size:20px;"">You will now move on to the main experiment. </p>
        <p style=""font-size:20px;"">Please click the button below to continue. </p>","0","movetoexp","827","html-button-response","10","109088","0.0-4.0","47","1","2022-11-29 21:25:12","2df368f4e41f066fd1c82c297b4a1108","190.22.52.236","Mozilla/5.0 (Windows NT 10.0; Win64; x64) AppleWebKit/537.36 (KHTML, like Gecko) Chrome/107.0.0.0 Safari/537.36 Edg/107.0.1418.56","WebKit","Edge","107.0.1418.56","Windows","10.0","","","","",""
"8736","You see how an old man is hammering a nail <br> T&uacute ves como un hombre anciano est&aacute martillando un clavo","{""Q0"":4}","trial","827","survey-likert","11","117826","0.0-5.0-0.0","47","1","2022-11-29 21:25:12","2df368f4e41f066fd1c82c297b4a1108","190.22.52.236","Mozilla/5.0 (Windows NT 10.0; Win64; x64) AppleWebKit/537.36 (KHTML, like Gecko) Chrome/107.0.0.0 Safari/537.36 Edg/107.0.1418.56","WebKit","Edge","107.0.1418.56","Windows","10.0","[0]","","29","4",""
"5630","You see how a man is shaving his beard <br> T&uacute ves como un hombre se est&aacute afeitando la barba","{""Q0"":4}","trial","827","survey-likert","12","123459","0.0-5.0-0.1","47","1","2022-11-29 21:25:12","2df368f4e41f066fd1c82c297b4a1108","190.22.52.236","Mozilla/5.0 (Windows NT 10.0; Win64; x64) AppleWebKit/537.36 (KHTML, like Gecko) Chrome/107.0.0.0 Safari/537.36 Edg/107.0.1418.56","WebKit","Edge","107.0.1418.56","Windows","10.0","[0]","","43","4",""
"3380","You see how a parrot is eating an apple <br> T&uacute ves como un loro est&aacute comiendo una manzana","{""Q0"":4}","trial","827","survey-likert","13","126843","0.0-5.0-0.2","47","1","2022-11-29 21:25:12","2df368f4e41f066fd1c82c297b4a1108","190.22.52.236","Mozilla/5.0 (Windows NT 10.0; Win64; x64) AppleWebKit/537.36 (KHTML, like Gecko) Chrome/107.0.0.0 Safari/537.36 Edg/107.0.1418.56","WebKit","Edge","107.0.1418.56","Windows","10.0","[0]","","58","4",""
"2780","You see how a puppy is playing with a ball <br> T&uacute ves como un cachorro est&aacute jugando con una pelota","{""Q0"":4}","trial","827","survey-likert","14","129627","0.0-5.0-0.3","47","1","2022-11-29 21:25:12","2df368f4e41f066fd1c82c297b4a1108","190.22.52.236","Mozilla/5.0 (Windows NT 10.0; Win64; x64) AppleWebKit/537.36 (KHTML, like Gecko) Chrome/107.0.0.0 Safari/537.36 Edg/107.0.1418.56","WebKit","Edge","107.0.1418.56","Windows","10.0","[0]","","34","4",""
"6669","You drop a bowling ball on a donut <br> T&uacute tiras una bola de boliche a una rosquilla","{""Q0"":3}","trial","827","survey-likert","15","136300","0.0-5.0-0.4","47","1","2022-11-29 21:25:12","2df368f4e41f066fd1c82c297b4a1108","190.22.52.236","Mozilla/5.0 (Windows NT 10.0; Win64; x64) AppleWebKit/537.36 (KHTML, like Gecko) Chrome/107.0.0.0 Safari/537.36 Edg/107.0.1418.56","WebKit","Edge","107.0.1418.56","Windows","10.0","[0]","","17","3",""
"6590","You see how a teenage girl is playing the piano <br> T&uacute ves como una ni&ntildea adolescente est&aacute tocando el piano","{""Q0"":4}","trial","827","survey-likert","16","142893","0.0-5.0-0.5","47","1","2022-11-29 21:25:12","2df368f4e41f066fd1c82c297b4a1108","190.22.52.236","Mozilla/5.0 (Windows NT 10.0; Win64; x64) AppleWebKit/537.36 (KHTML, like Gecko) Chrome/107.0.0.0 Safari/537.36 Edg/107.0.1418.56","WebKit","Edge","107.0.1418.56","Windows","10.0","[0]","","54","4",""
"3537","You drop a watch on the laptop <br> T&uacute tiras un reloj al port&aacutetil","{""Q0"":3}","trial","827","survey-likert","17","146435","0.0-5.0-0.6","47","1","2022-11-29 21:25:12","2df368f4e41f066fd1c82c297b4a1108","190.22.52.236","Mozilla/5.0 (Windows NT 10.0; Win64; x64) AppleWebKit/537.36 (KHTML, like Gecko) Chrome/107.0.0.0 Safari/537.36 Edg/107.0.1418.56","WebKit","Edge","107.0.1418.56","Windows","10.0","[0]","","37","3",""
"2838","You drop a bowling ball on an iPAD <br> T&uacute tiras una bola de boliche a un iPad","{""Q0"":3}","trial","827","survey-likert","18","149276","0.0-5.0-0.7","47","1","2022-11-29 21:25:12","2df368f4e41f066fd1c82c297b4a1108","190.22.52.236","Mozilla/5.0 (Windows NT 10.0; Win64; x64) AppleWebKit/537.36 (KHTML, like Gecko) Chrome/107.0.0.0 Safari/537.36 Edg/107.0.1418.56","WebKit","Edge","107.0.1418.56","Windows","10.0","[0]","","12","3",""
"3729","You drop a toothbrush on the sponge <br> T&uacute tiras un cepillo de dientes en la esponja","{""Q0"":3}","trial","827","survey-likert","19","153008","0.0-5.0-0.8","47","1","2022-11-29 21:25:12","2df368f4e41f066fd1c82c297b4a1108","190.22.52.236","Mozilla/5.0 (Windows NT 10.0; Win64; x64) AppleWebKit/537.36 (KHTML, like Gecko) Chrome/107.0.0.0 Safari/537.36 Edg/107.0.1418.56","WebKit","Edge","107.0.1418.56","Windows","10.0","[0]","","25","3",""
"5562","You drop a bowling ball on a rice cake <br> T&uacute tiras una bola de boliche a una tortita de arroz","{""Q0"":3}","trial","827","survey-likert","20","158573","0.0-5.0-0.9","47","1","2022-11-29 21:25:12","2df368f4e41f066fd1c82c297b4a1108","190.22.52.236","Mozilla/5.0 (Windows NT 10.0; Win64; x64) AppleWebKit/537.36 (KHTML, like Gecko) Chrome/107.0.0.0 Safari/537.36 Edg/107.0.1418.56","WebKit","Edge","107.0.1418.56","Windows","10.0","[0]","","18","3",""
"4384","You drop a bowling ball on an empty can of beer <br> T&uacute tiras una bola de boliche a una lata de cerveza vac&iacutea","{""Q0"":3}","trial","827","survey-likert","21","162960","0.0-5.0-0.10","47","1","2022-11-29 21:25:12","2df368f4e41f066fd1c82c297b4a1108","190.22.52.236","Mozilla/5.0 (Windows NT 10.0; Win64; x64) AppleWebKit/537.36 (KHTML, like Gecko) Chrome/107.0.0.0 Safari/537.36 Edg/107.0.1418.56","WebKit","Edge","107.0.1418.56","Windows","10.0","[0]","","3","3",""
"2378","You drop a bowling ball on glasses <br> T&uacute tiras una bola de boliche a unas gafas","{""Q0"":3}","trial","827","survey-likert","22","165340","0.0-5.0-0.11","47","1","2022-11-29 21:25:12","2df368f4e41f066fd1c82c297b4a1108","190.22.52.236","Mozilla/5.0 (Windows NT 10.0; Win64; x64) AppleWebKit/537.36 (KHTML, like Gecko) Chrome/107.0.0.0 Safari/537.36 Edg/107.0.1418.56","WebKit","Edge","107.0.1418.56","Windows","10.0","[0]","","9","3",""
"3734","You drop a bowling ball on a tile <br> T&uacute tiras una bola de boliche a una baldosa","{""Q0"":3}","trial","827","survey-likert","23","169078","0.0-5.0-0.12","47","1","2022-11-29 21:25:12","2df368f4e41f066fd1c82c297b4a1108","190.22.52.236","Mozilla/5.0 (Windows NT 10.0; Win64; x64) AppleWebKit/537.36 (KHTML, like Gecko) Chrome/107.0.0.0 Safari/537.36 Edg/107.0.1418.56","WebKit","Edge","107.0.1418.56","Windows","10.0","[0]","","22","3",""
"6100","You drop a bowling ball on a paper cup <br> T&uacute tiras una bola de boliche a un vaso de papel","{""Q0"":3}","trial","827","survey-likert","24","175181","0.0-5.0-0.13","47","1","2022-11-29 21:25:12","2df368f4e41f066fd1c82c297b4a1108","190.22.52.236","Mozilla/5.0 (Windows NT 10.0; Win64; x64) AppleWebKit/537.36 (KHTML, like Gecko) Chrome/107.0.0.0 Safari/537.36 Edg/107.0.1418.56","WebKit","Edge","107.0.1418.56","Windows","10.0","[0]","","24","3",""
"6652","You see how a zebra is playing with a horse <br> T&uacute ves como una cebra est&aacute jugando con un caballo","{""Q0"":4}","trial","827","survey-likert","25","181836","0.0-5.0-0.14","47","1","2022-11-29 21:25:12","2df368f4e41f066fd1c82c297b4a1108","190.22.52.236","Mozilla/5.0 (Windows NT 10.0; Win64; x64) AppleWebKit/537.36 (KHTML, like Gecko) Chrome/107.0.0.0 Safari/537.36 Edg/107.0.1418.56","WebKit","Edge","107.0.1418.56","Windows","10.0","[0]","","66","4",""
"2155","You drop a bowling ball on a porcelain figure <br> T&uacute tiras una bola de boliche a una figura de porcelana","{""Q0"":3}","trial","827","survey-likert","26","183994","0.0-5.0-0.15","47","1","2022-11-29 21:25:12","2df368f4e41f066fd1c82c297b4a1108","190.22.52.236","Mozilla/5.0 (Windows NT 10.0; Win64; x64) AppleWebKit/537.36 (KHTML, like Gecko) Chrome/107.0.0.0 Safari/537.36 Edg/107.0.1418.56","WebKit","Edge","107.0.1418.56","Windows","10.0","[0]","","1","3",""
"5708","You see how a nurse is taking a syringe <br> T&uacute ves como una enfermera est&aacute agarrando una jeringuilla","{""Q0"":4}","trial","827","survey-likert","27","189704","0.0-5.0-0.16","47","1","2022-11-29 21:25:12","2df368f4e41f066fd1c82c297b4a1108","190.22.52.236","Mozilla/5.0 (Windows NT 10.0; Win64; x64) AppleWebKit/537.36 (KHTML, like Gecko) Chrome/107.0.0.0 Safari/537.36 Edg/107.0.1418.56","WebKit","Edge","107.0.1418.56","Windows","10.0","[0]","","48","4",""
"5295","You see how a dentist is drinking a can of cola <br> T&uacute ves como un dentista est&aacute bebiendo una lata de cola","{""Q0"":4}","trial","827","survey-likert","28","195002","0.0-5.0-0.17","47","1","2022-11-29 21:25:12","2df368f4e41f066fd1c82c297b4a1108","190.22.52.236","Mozilla/5.0 (Windows NT 10.0; Win64; x64) AppleWebKit/537.36 (KHTML, like Gecko) Chrome/107.0.0.0 Safari/537.36 Edg/107.0.1418.56","WebKit","Edge","107.0.1418.56","Windows","10.0","[0]","","47","4",""
"3021","You drop a bowling ball on an egg flan <br> T&uacute tiras una bola de boliche a un flan","{""Q0"":3}","trial","827","survey-likert","29","198027","0.0-5.0-0.18","47","1","2022-11-29 21:25:12","2df368f4e41f066fd1c82c297b4a1108","190.22.52.236","Mozilla/5.0 (Windows NT 10.0; Win64; x64) AppleWebKit/537.36 (KHTML, like Gecko) Chrome/107.0.0.0 Safari/537.36 Edg/107.0.1418.56","WebKit","Edge","107.0.1418.56","Windows","10.0","[0]","","7","3",""
"3952","You drop a cabbage on the table <br> T&uacute tiras una col a la mesa","{""Q0"":3}","trial","827","survey-likert","30","201983","0.0-5.0-0.19","47","1","2022-11-29 21:25:12","2df368f4e41f066fd1c82c297b4a1108","190.22.52.236","Mozilla/5.0 (Windows NT 10.0; Win64; x64) AppleWebKit/537.36 (KHTML, like Gecko) Chrome/107.0.0.0 Safari/537.36 Edg/107.0.1418.56","WebKit","Edge","107.0.1418.56","Windows","10.0","[0]","","35","3",""
"4344","You see how a doctor is taking a stethoscope <br> T&uacute ves como un doctor est&aacute agarrando un estetoscopio","{""Q0"":4}","trial","827","survey-likert","31","206329","0.0-5.0-0.20","47","1","2022-11-29 21:25:12","2df368f4e41f066fd1c82c297b4a1108","190.22.52.236","Mozilla/5.0 (Windows NT 10.0; Win64; x64) AppleWebKit/537.36 (KHTML, like Gecko) Chrome/107.0.0.0 Safari/537.36 Edg/107.0.1418.56","WebKit","Edge","107.0.1418.56","Windows","10.0","[0]","","49","4",""
"8688","You drop a cushion on the magazine <br> T&uacute tiras un coj&iacuten a la revista","{""Q0"":3}","trial","827","survey-likert","32","215020","0.0-5.0-0.21","47","1","2022-11-29 21:25:12","2df368f4e41f066fd1c82c297b4a1108","190.22.52.236","Mozilla/5.0 (Windows NT 10.0; Win64; x64) AppleWebKit/537.36 (KHTML, like Gecko) Chrome/107.0.0.0 Safari/537.36 Edg/107.0.1418.56","WebKit","Edge","107.0.1418.56","Windows","10.0","[0]","","38","3",""
"2509","You see how a postman is driving a car <br> T&uacute ves como un cartero est&aacute conduciendo un coche","{""Q0"":3}","trial","827","survey-likert","33","217533","0.0-5.0-0.22","47","1","2022-11-29 21:25:12","2df368f4e41f066fd1c82c297b4a1108","190.22.52.236","Mozilla/5.0 (Windows NT 10.0; Win64; x64) AppleWebKit/537.36 (KHTML, like Gecko) Chrome/107.0.0.0 Safari/537.36 Edg/107.0.1418.56","WebKit","Edge","107.0.1418.56","Windows","10.0","[0]","","32","3",""
"5129","You drop a thermometer on the box <br> T&uacute tiras un term&oacutemetro a la caja","{""Q0"":3}","trial","827","survey-likert","34","222665","0.0-5.0-0.23","47","1","2022-11-29 21:25:12","2df368f4e41f066fd1c82c297b4a1108","190.22.52.236","Mozilla/5.0 (Windows NT 10.0; Win64; x64) AppleWebKit/537.36 (KHTML, like Gecko) Chrome/107.0.0.0 Safari/537.36 Edg/107.0.1418.56","WebKit","Edge","107.0.1418.56","Windows","10.0","[0]","","70","3",""
"3615","You see how a pilot is reading a book <br> T&uacute ves como un piloto est&aacute leyendo un libro","{""Q0"":4}","trial","827","survey-likert","35","226283","0.0-5.0-0.24","47","1","2022-11-29 21:25:12","2df368f4e41f066fd1c82c297b4a1108","190.22.52.236","Mozilla/5.0 (Windows NT 10.0; Win64; x64) AppleWebKit/537.36 (KHTML, like Gecko) Chrome/107.0.0.0 Safari/537.36 Edg/107.0.1418.56","WebKit","Edge","107.0.1418.56","Windows","10.0","[0]","","61","4",""
"1999","You drop a towel on the TV <br> T&uacute tiras una toalla a la televisi&oacuten","{""Q0"":3}","trial","827","survey-likert","36","228286","0.0-5.0-0.25","47","1","2022-11-29 21:25:12","2df368f4e41f066fd1c82c297b4a1108","190.22.52.236","Mozilla/5.0 (Windows NT 10.0; Win64; x64) AppleWebKit/537.36 (KHTML, like Gecko) Chrome/107.0.0.0 Safari/537.36 Edg/107.0.1418.56","WebKit","Edge","107.0.1418.56","Windows","10.0","[0]","","53","3",""
"1949","You drop a bowling ball on a piece of sushi <br> T&uacute tiras una bola de boliche a un pedazo de sushi","{""Q0"":3}","trial","827","survey-likert","37","230239","0.0-5.0-0.26","47","1","2022-11-29 21:25:12","2df368f4e41f066fd1c82c297b4a1108","190.22.52.236","Mozilla/5.0 (Windows NT 10.0; Win64; x64) AppleWebKit/537.36 (KHTML, like Gecko) Chrome/107.0.0.0 Safari/537.36 Edg/107.0.1418.56","WebKit","Edge","107.0.1418.56","Windows","10.0","[0]","","21","3",""
"2122","You drop a bowling ball on an egg <br> T&uacute tiras una bola de boliche a un huevo","{""Q0"":3}","trial","827","survey-likert","38","232365","0.0-5.0-0.27","47","1","2022-11-29 21:25:12","2df368f4e41f066fd1c82c297b4a1108","190.22.52.236","Mozilla/5.0 (Windows NT 10.0; Win64; x64) AppleWebKit/537.36 (KHTML, like Gecko) Chrome/107.0.0.0 Safari/537.36 Edg/107.0.1418.56","WebKit","Edge","107.0.1418.56","Windows","10.0","[0]","","6","3",""
"5343","You see how a musician is playing a guitar <br> T&uacute ves como un m&uacutesico est&aacute tocando la guitarra","{""Q0"":4}","trial","827","survey-likert","39","237712","0.0-5.0-0.28","47","1","2022-11-29 21:25:12","2df368f4e41f066fd1c82c297b4a1108","190.22.52.236","Mozilla/5.0 (Windows NT 10.0; Win64; x64) AppleWebKit/537.36 (KHTML, like Gecko) Chrome/107.0.0.0 Safari/537.36 Edg/107.0.1418.56","WebKit","Edge","107.0.1418.56","Windows","10.0","[0]","","27","4",""
"2067","You drop a bowling ball on a mirror <br> T&uacute tiras una bola de boliche a un espejo","{""Q0"":3}","trial","827","survey-likert","40","239783","0.0-5.0-0.29","47","1","2022-11-29 21:25:12","2df368f4e41f066fd1c82c297b4a1108","190.22.52.236","Mozilla/5.0 (Windows NT 10.0; Win64; x64) AppleWebKit/537.36 (KHTML, like Gecko) Chrome/107.0.0.0 Safari/537.36 Edg/107.0.1418.56","WebKit","Edge","107.0.1418.56","Windows","10.0","[0]","","15","3",""
"5077","You drop a needle on the mouse pad <br> T&uacute tiras una aguja a la alfombrilla para el rat&oacuten","{""Q0"":3}","trial","827","survey-likert","41","244863","0.0-5.0-0.30","47","1","2022-11-29 21:25:12","2df368f4e41f066fd1c82c297b4a1108","190.22.52.236","Mozilla/5.0 (Windows NT 10.0; Win64; x64) AppleWebKit/537.36 (KHTML, like Gecko) Chrome/107.0.0.0 Safari/537.36 Edg/107.0.1418.56","WebKit","Edge","107.0.1418.56","Windows","10.0","[0]","","42","3",""
"2746","You see how a kitten is playing in the sandbox <br> T&uacute ves como un gatito est&aacute jugando en la caja de arena","{""Q0"":4}","trial","827","survey-likert","42","247612","0.0-5.0-0.31","47","1","2022-11-29 21:25:12","2df368f4e41f066fd1c82c297b4a1108","190.22.52.236","Mozilla/5.0 (Windows NT 10.0; Win64; x64) AppleWebKit/537.36 (KHTML, like Gecko) Chrome/107.0.0.0 Safari/537.36 Edg/107.0.1418.56","WebKit","Edge","107.0.1418.56","Windows","10.0","[0]","","52","4",""
"4089","You see how an elephant is eating a watermelon <br> T&uacute ves como un elefante est&aacute comiendo una sand&iacutea","{""Q0"":4}","trial","827","survey-likert","43","251706","0.0-5.0-0.32","47","1","2022-11-29 21:25:12","2df368f4e41f066fd1c82c297b4a1108","190.22.52.236","Mozilla/5.0 (Windows NT 10.0; Win64; x64) AppleWebKit/537.36 (KHTML, like Gecko) Chrome/107.0.0.0 Safari/537.36 Edg/107.0.1418.56","WebKit","Edge","107.0.1418.56","Windows","10.0","[0]","","31","4",""
"2750","You drop a bowling ball on a piece of cake <br> T&uacute tiras una bola de boliche a un trozo de pastel","{""Q0"":3}","trial","827","survey-likert","44","254463","0.0-5.0-0.33","47","1","2022-11-29 21:25:12","2df368f4e41f066fd1c82c297b4a1108","190.22.52.236","Mozilla/5.0 (Windows NT 10.0; Win64; x64) AppleWebKit/537.36 (KHTML, like Gecko) Chrome/107.0.0.0 Safari/537.36 Edg/107.0.1418.56","WebKit","Edge","107.0.1418.56","Windows","10.0","[0]","","2","3",""
"4355","You see how a police officer is talking on the phone <br> T&uacute ves como un polic&iacutea est&aacute hablando por el tel&eacutefono","{""Q0"":4}","trial","827","survey-likert","45","258822","0.0-5.0-0.34","47","1","2022-11-29 21:25:12","2df368f4e41f066fd1c82c297b4a1108","190.22.52.236","Mozilla/5.0 (Windows NT 10.0; Win64; x64) AppleWebKit/537.36 (KHTML, like Gecko) Chrome/107.0.0.0 Safari/537.36 Edg/107.0.1418.56","WebKit","Edge","107.0.1418.56","Windows","10.0","[0]","","62","4",""
"4531","You see how a woman is paying with a debit card <br> T&uacute ves como una mujer est&aacute pagando con una tarjeta de d&eacutebito","{""Q0"":4}","trial","827","survey-likert","46","263357","0.0-5.0-0.35","47","1","2022-11-29 21:25:12","2df368f4e41f066fd1c82c297b4a1108","190.22.52.236","Mozilla/5.0 (Windows NT 10.0; Win64; x64) AppleWebKit/537.36 (KHTML, like Gecko) Chrome/107.0.0.0 Safari/537.36 Edg/107.0.1418.56","WebKit","Edge","107.0.1418.56","Windows","10.0","[0]","","64","4",""
"3784","You drop a bowling ball on a hat <br> T&uacute tiras una bola de boliche a una gorra","{""Q0"":3}","trial","827","survey-likert","47","267145","0.0-5.0-0.36","47","1","2022-11-29 21:25:12","2df368f4e41f066fd1c82c297b4a1108","190.22.52.236","Mozilla/5.0 (Windows NT 10.0; Win64; x64) AppleWebKit/537.36 (KHTML, like Gecko) Chrome/107.0.0.0 Safari/537.36 Edg/107.0.1418.56","WebKit","Edge","107.0.1418.56","Windows","10.0","[0]","","10","3",""
"2952","You drop a ring on the newspaper <br> T&uacute tiras un anillo al peri&oacutedico","{""Q0"":3}","trial","827","survey-likert","48","270102","0.0-5.0-0.37","47","1","2022-11-29 21:25:12","2df368f4e41f066fd1c82c297b4a1108","190.22.52.236","Mozilla/5.0 (Windows NT 10.0; Win64; x64) AppleWebKit/537.36 (KHTML, like Gecko) Chrome/107.0.0.0 Safari/537.36 Edg/107.0.1418.56","WebKit","Edge","107.0.1418.56","Windows","10.0","[0]","","41","3",""
"2370","You drop a bowling ball on a blackberry <br> T&uacute tiras una bola de boliche a una mora","{""Q0"":3}","trial","827","survey-likert","49","272476","0.0-5.0-0.38","47","1","2022-11-29 21:25:12","2df368f4e41f066fd1c82c297b4a1108","190.22.52.236","Mozilla/5.0 (Windows NT 10.0; Win64; x64) AppleWebKit/537.36 (KHTML, like Gecko) Chrome/107.0.0.0 Safari/537.36 Edg/107.0.1418.56","WebKit","Edge","107.0.1418.56","Windows","10.0","[0]","","8","3",""
"3188","You see how a butterfly is sitting on a flower <br> T&uacute ves como una mariposa est&aacute reposando en una flor","{""Q0"":4}","trial","827","survey-likert","50","275667","0.0-5.0-0.39","47","1","2022-11-29 21:25:12","2df368f4e41f066fd1c82c297b4a1108","190.22.52.236","Mozilla/5.0 (Windows NT 10.0; Win64; x64) AppleWebKit/537.36 (KHTML, like Gecko) Chrome/107.0.0.0 Safari/537.36 Edg/107.0.1418.56","WebKit","Edge","107.0.1418.56","Windows","10.0","[0]","","59","4",""
"2276","You drop a bowling ball on a chocolate ice-cream <br> T&uacute tiras una bola de boliche a un helado de chocolate","{""Q0"":3}","trial","827","survey-likert","51","277947","0.0-5.0-0.40","47","1","2022-11-29 21:25:12","2df368f4e41f066fd1c82c297b4a1108","190.22.52.236","Mozilla/5.0 (Windows NT 10.0; Win64; x64) AppleWebKit/537.36 (KHTML, like Gecko) Chrome/107.0.0.0 Safari/537.36 Edg/107.0.1418.56","WebKit","Edge","107.0.1418.56","Windows","10.0","[0]","","11","3",""
"2938","You drop a bowling ball on a strawberry <br> T&uacute tiras una bola de boliche a una fresa","{""Q0"":3}","trial","827","survey-likert","52","280887","0.0-5.0-0.41","47","1","2022-11-29 21:25:12","2df368f4e41f066fd1c82c297b4a1108","190.22.52.236","Mozilla/5.0 (Windows NT 10.0; Win64; x64) AppleWebKit/537.36 (KHTML, like Gecko) Chrome/107.0.0.0 Safari/537.36 Edg/107.0.1418.56","WebKit","Edge","107.0.1418.56","Windows","10.0","[0]","","20","3",""
"3740","You see how a cook is taking a knife <br> T&uacute ves como un cocinero est&aacute agarrando un cuchillo","{""Q0"":4}","trial","827","survey-likert","53","284631","0.0-5.0-0.42","47","1","2022-11-29 21:25:12","2df368f4e41f066fd1c82c297b4a1108","190.22.52.236","Mozilla/5.0 (Windows NT 10.0; Win64; x64) AppleWebKit/537.36 (KHTML, like Gecko) Chrome/107.0.0.0 Safari/537.36 Edg/107.0.1418.56","WebKit","Edge","107.0.1418.56","Windows","10.0","[0]","","71","4",""
"2062","You drop a bowling ball on a cracker <br> T&uacute tiras una bola de boliche a una galleta","{""Q0"":3}","trial","827","survey-likert","54","286696","0.0-5.0-0.43","47","1","2022-11-29 21:25:12","2df368f4e41f066fd1c82c297b4a1108","190.22.52.236","Mozilla/5.0 (Windows NT 10.0; Win64; x64) AppleWebKit/537.36 (KHTML, like Gecko) Chrome/107.0.0.0 Safari/537.36 Edg/107.0.1418.56","WebKit","Edge","107.0.1418.56","Windows","10.0","[0]","","4","3",""
"6017","You see how a hairdresser is taking scissors <br> T&uacute ves como una peluquera est&aacute agarrando las tijeras","{""Q0"":4}","trial","827","survey-likert","55","292716","0.0-5.0-0.44","47","1","2022-11-29 21:25:12","2df368f4e41f066fd1c82c297b4a1108","190.22.52.236","Mozilla/5.0 (Windows NT 10.0; Win64; x64) AppleWebKit/537.36 (KHTML, like Gecko) Chrome/107.0.0.0 Safari/537.36 Edg/107.0.1418.56","WebKit","Edge","107.0.1418.56","Windows","10.0","[0]","","60","4",""
"3476","You see how a photographer is taking a photo of a lion <br> T&uacute ves como un fot&oacutegrafo est&aacute tomando una foto de un le&oacuten","{""Q0"":3}","trial","827","survey-likert","56","296195","0.0-5.0-0.45","47","1","2022-11-29 21:25:12","2df368f4e41f066fd1c82c297b4a1108","190.22.52.236","Mozilla/5.0 (Windows NT 10.0; Win64; x64) AppleWebKit/537.36 (KHTML, like Gecko) Chrome/107.0.0.0 Safari/537.36 Edg/107.0.1418.56","WebKit","Edge","107.0.1418.56","Windows","10.0","[0]","","72","3",""
"4064","You see how a man is boiling potatoes <br> T&uacute ves a un hombre est&aacute hirviendo papas","{""Q0"":4}","trial","827","survey-likert","57","300262","0.0-5.0-0.46","47","1","2022-11-29 21:25:12","2df368f4e41f066fd1c82c297b4a1108","190.22.52.236","Mozilla/5.0 (Windows NT 10.0; Win64; x64) AppleWebKit/537.36 (KHTML, like Gecko) Chrome/107.0.0.0 Safari/537.36 Edg/107.0.1418.56","WebKit","Edge","107.0.1418.56","Windows","10.0","[0]","","46","4",""
"2936","You see how a president is writing in the notebook <br> T&uacute ves como un presidente est&aacute escribiendo en la libreta","{""Q0"":4}","trial","827","survey-likert","58","303203","0.0-5.0-0.47","47","1","2022-11-29 21:25:12","2df368f4e41f066fd1c82c297b4a1108","190.22.52.236","Mozilla/5.0 (Windows NT 10.0; Win64; x64) AppleWebKit/537.36 (KHTML, like Gecko) Chrome/107.0.0.0 Safari/537.36 Edg/107.0.1418.56","WebKit","Edge","107.0.1418.56","Windows","10.0","[0]","","63","4",""
"4867","You see how an actress is taking a microphone <br> T&uacute ves como una actriz est&aacute agarrando el micr&oacutefono","{""Q0"":4}","trial","827","survey-likert","59","308074","0.0-5.0-0.48","47","1","2022-11-29 21:25:12","2df368f4e41f066fd1c82c297b4a1108","190.22.52.236","Mozilla/5.0 (Windows NT 10.0; Win64; x64) AppleWebKit/537.36 (KHTML, like Gecko) Chrome/107.0.0.0 Safari/537.36 Edg/107.0.1418.56","WebKit","Edge","107.0.1418.56","Windows","10.0","[0]","","51","4",""
"3244","You see how a horse is chewing hay <br> T&uacute ves como un caballo est&aacute masticando el heno","{""Q0"":4}","trial","827","survey-likert","60","311322","0.0-5.0-0.49","47","1","2022-11-29 21:25:12","2df368f4e41f066fd1c82c297b4a1108","190.22.52.236","Mozilla/5.0 (Windows NT 10.0; Win64; x64) AppleWebKit/537.36 (KHTML, like Gecko) Chrome/107.0.0.0 Safari/537.36 Edg/107.0.1418.56","WebKit","Edge","107.0.1418.56","Windows","10.0","[0]","","55","4",""
"2005","You drop a bowling ball on a tomato <br> T&uacute tiras una bola de boliche a un tomate","{""Q0"":3}","trial","827","survey-likert","61","313331","0.0-5.0-0.50","47","1","2022-11-29 21:25:12","2df368f4e41f066fd1c82c297b4a1108","190.22.52.236","Mozilla/5.0 (Windows NT 10.0; Win64; x64) AppleWebKit/537.36 (KHTML, like Gecko) Chrome/107.0.0.0 Safari/537.36 Edg/107.0.1418.56","WebKit","Edge","107.0.1418.56","Windows","10.0","[0]","","23","3",""
"1782","You drop a bowling ball on a wine glass <br> T&uacute tiras una bola de boliche a una copa de vino","{""Q0"":3}","trial","827","survey-likert","62","315117","0.0-5.0-0.51","47","1","2022-11-29 21:25:12","2df368f4e41f066fd1c82c297b4a1108","190.22.52.236","Mozilla/5.0 (Windows NT 10.0; Win64; x64) AppleWebKit/537.36 (KHTML, like Gecko) Chrome/107.0.0.0 Safari/537.36 Edg/107.0.1418.56","WebKit","Edge","107.0.1418.56","Windows","10.0","[0]","","5","3",""
"3284","You see how an astronaut is putting on a space suit <br> T&uacute ves como un astronauta se est&aacute poniendo su traje espacial","{""Q0"":4}","trial","827","survey-likert","63","318405","0.0-5.0-0.52","47","1","2022-11-29 21:25:12","2df368f4e41f066fd1c82c297b4a1108","190.22.52.236","Mozilla/5.0 (Windows NT 10.0; Win64; x64) AppleWebKit/537.36 (KHTML, like Gecko) Chrome/107.0.0.0 Safari/537.36 Edg/107.0.1418.56","WebKit","Edge","107.0.1418.56","Windows","10.0","[0]","","33","4",""
"1761","You drop a bowling ball on a chocolate muffin <br> T&uacute tiras una bola de boliche a una magdalena de chocolate","{""Q0"":3}","trial","827","survey-likert","64","320170","0.0-5.0-0.53","47","1","2022-11-29 21:25:12","2df368f4e41f066fd1c82c297b4a1108","190.22.52.236","Mozilla/5.0 (Windows NT 10.0; Win64; x64) AppleWebKit/537.36 (KHTML, like Gecko) Chrome/107.0.0.0 Safari/537.36 Edg/107.0.1418.56","WebKit","Edge","107.0.1418.56","Windows","10.0","[0]","","16","3",""
"5537","You drop a pencil on the shoe <br> T&uacute tiras un l&aacutepiz al zapato","{""Q0"":3}","trial","827","survey-likert","65","325710","0.0-5.0-0.54","47","1","2022-11-29 21:25:12","2df368f4e41f066fd1c82c297b4a1108","190.22.52.236","Mozilla/5.0 (Windows NT 10.0; Win64; x64) AppleWebKit/537.36 (KHTML, like Gecko) Chrome/107.0.0.0 Safari/537.36 Edg/107.0.1418.56","WebKit","Edge","107.0.1418.56","Windows","10.0","[0]","","40","3",""
"2087","You drop a remote on the rug <br> T&uacute tiras un control remoto a la alfombra","{""Q0"":3}","trial","827","survey-likert","66","327800","0.0-5.0-0.55","47","1","2022-11-29 21:25:12","2df368f4e41f066fd1c82c297b4a1108","190.22.52.236","Mozilla/5.0 (Windows NT 10.0; Win64; x64) AppleWebKit/537.36 (KHTML, like Gecko) Chrome/107.0.0.0 Safari/537.36 Edg/107.0.1418.56","WebKit","Edge","107.0.1418.56","Windows","10.0","[0]","","39","3",""
"7977","You see how a woman is taking money out of a wallet <br> T&uacute ves como una mujer est&aacute sacando dinero de su billetera","{""Q0"":2}","trial","827","survey-likert","67","335782","0.0-5.0-0.56","47","1","2022-11-29 21:25:12","2df368f4e41f066fd1c82c297b4a1108","190.22.52.236","Mozilla/5.0 (Windows NT 10.0; Win64; x64) AppleWebKit/537.36 (KHTML, like Gecko) Chrome/107.0.0.0 Safari/537.36 Edg/107.0.1418.56","WebKit","Edge","107.0.1418.56","Windows","10.0","[0]","","44","2",""
"4892","You see how a student is writing on a board <br> T&uacute ves como un estudiante est&aacute escribiendo en la pizarra","{""Q0"":4}","trial","827","survey-likert","68","340678","0.0-5.0-0.57","47","1","2022-11-29 21:25:12","2df368f4e41f066fd1c82c297b4a1108","190.22.52.236","Mozilla/5.0 (Windows NT 10.0; Win64; x64) AppleWebKit/537.36 (KHTML, like Gecko) Chrome/107.0.0.0 Safari/537.36 Edg/107.0.1418.56","WebKit","Edge","107.0.1418.56","Windows","10.0","[0]","","50","4",""
"2126","You drop a keyboard on the bed <br> T&uacute tiras un teclado a la cama","{""Q0"":3}","trial","827","survey-likert","69","342807","0.0-5.0-0.58","47","1","2022-11-29 21:25:12","2df368f4e41f066fd1c82c297b4a1108","190.22.52.236","Mozilla/5.0 (Windows NT 10.0; Win64; x64) AppleWebKit/537.36 (KHTML, like Gecko) Chrome/107.0.0.0 Safari/537.36 Edg/107.0.1418.56","WebKit","Edge","107.0.1418.56","Windows","10.0","[0]","","36","3",""
"1992","You drop a bowling ball on an iPhone <br> T&uacute tiras una bola de boliche a un iPhone","{""Q0"":3}","trial","827","survey-likert","70","344804","0.0-5.0-0.59","47","1","2022-11-29 21:25:12","2df368f4e41f066fd1c82c297b4a1108","190.22.52.236","Mozilla/5.0 (Windows NT 10.0; Win64; x64) AppleWebKit/537.36 (KHTML, like Gecko) Chrome/107.0.0.0 Safari/537.36 Edg/107.0.1418.56","WebKit","Edge","107.0.1418.56","Windows","10.0","[0]","","13","3",""
"1665","You see how a mouse is eating cheese <br> T&uacute ves como el rat&oacuten est&aacute comiendo queso","{""Q0"":3}","trial","827","survey-likert","71","346474","0.0-5.0-0.60","47","1","2022-11-29 21:25:12","2df368f4e41f066fd1c82c297b4a1108","190.22.52.236","Mozilla/5.0 (Windows NT 10.0; Win64; x64) AppleWebKit/537.36 (KHTML, like Gecko) Chrome/107.0.0.0 Safari/537.36 Edg/107.0.1418.56","WebKit","Edge","107.0.1418.56","Windows","10.0","[0]","","56","3",""
"2714","You drop a fork on the plate <br> T&uacute tiras un tenedor al plato","{""Q0"":3}","trial","827","survey-likert","72","349193","0.0-5.0-0.61","47","1","2022-11-29 21:25:12","2df368f4e41f066fd1c82c297b4a1108","190.22.52.236","Mozilla/5.0 (Windows NT 10.0; Win64; x64) AppleWebKit/537.36 (KHTML, like Gecko) Chrome/107.0.0.0 Safari/537.36 Edg/107.0.1418.56","WebKit","Edge","107.0.1418.56","Windows","10.0","[0]","","26","3",""
"4096","You see how a thief is stealing a wallet <br> T&uacute ves como un ladr&oacuten est&aacute robando una billetera","{""Q0"":4}","trial","827","survey-likert","73","353294","0.0-5.0-0.62","47","1","2022-11-29 21:25:12","2df368f4e41f066fd1c82c297b4a1108","190.22.52.236","Mozilla/5.0 (Windows NT 10.0; Win64; x64) AppleWebKit/537.36 (KHTML, like Gecko) Chrome/107.0.0.0 Safari/537.36 Edg/107.0.1418.56","WebKit","Edge","107.0.1418.56","Windows","10.0","[0]","","68","4",""
"5315","You see how a cat is drinking water from a bowl <br> T&uacute ves como un gato est&aacute bebiendo agua de un cuenco","{""Q0"":3}","trial","827","survey-likert","74","358613","0.0-5.0-0.63","47","1","2022-11-29 21:25:12","2df368f4e41f066fd1c82c297b4a1108","190.22.52.236","Mozilla/5.0 (Windows NT 10.0; Win64; x64) AppleWebKit/537.36 (KHTML, like Gecko) Chrome/107.0.0.0 Safari/537.36 Edg/107.0.1418.56","WebKit","Edge","107.0.1418.56","Windows","10.0","[0]","","28","3",""
"1374","You drop a bowling ball on a ceramic plate <br> T&uacute tiras una bola de boliche a un plato de cer&aacutemica","{""Q0"":3}","trial","827","survey-likert","75","359991","0.0-5.0-0.64","47","1","2022-11-29 21:25:12","2df368f4e41f066fd1c82c297b4a1108","190.22.52.236","Mozilla/5.0 (Windows NT 10.0; Win64; x64) AppleWebKit/537.36 (KHTML, like Gecko) Chrome/107.0.0.0 Safari/537.36 Edg/107.0.1418.56","WebKit","Edge","107.0.1418.56","Windows","10.0","[0]","","19","3",""
"1215","You see how a giraffe is playing with a zebra <br> T&uacute ves como una jirafa est&aacute jugando con una cebra","{""Q0"":3}","trial","827","survey-likert","76","361210","0.0-5.0-0.65","47","1","2022-11-29 21:25:12","2df368f4e41f066fd1c82c297b4a1108","190.22.52.236","Mozilla/5.0 (Windows NT 10.0; Win64; x64) AppleWebKit/537.36 (KHTML, like Gecko) Chrome/107.0.0.0 Safari/537.36 Edg/107.0.1418.56","WebKit","Edge","107.0.1418.56","Windows","10.0","[0]","","65","3",""
"2648","You see how a panda is resting on a tree <br> T&uacute ves como un panda est&aacute descansando en un &aacuterbol","{""Q0"":4}","trial","827","survey-likert","77","363863","0.0-5.0-0.66","47","1","2022-11-29 21:25:12","2df368f4e41f066fd1c82c297b4a1108","190.22.52.236","Mozilla/5.0 (Windows NT 10.0; Win64; x64) AppleWebKit/537.36 (KHTML, like Gecko) Chrome/107.0.0.0 Safari/537.36 Edg/107.0.1418.56","WebKit","Edge","107.0.1418.56","Windows","10.0","[0]","","57","4",""
"2348","You see how a donkey is drinking water <br> T&uacute ves como un burro est&aacute bebiendo agua","{""Q0"":4}","trial","827","survey-likert","78","366215","0.0-5.0-0.67","47","1","2022-11-29 21:25:12","2df368f4e41f066fd1c82c297b4a1108","190.22.52.236","Mozilla/5.0 (Windows NT 10.0; Win64; x64) AppleWebKit/537.36 (KHTML, like Gecko) Chrome/107.0.0.0 Safari/537.36 Edg/107.0.1418.56","WebKit","Edge","107.0.1418.56","Windows","10.0","[0]","","45","4",""
"1557","You see how a boy is peeling a banana <br> T&uacute ves como un ni&ntildeo est&aacute pelando una banana","{""Q0"":4}","trial","827","survey-likert","79","367776","0.0-5.0-0.68","47","1","2022-11-29 21:25:12","2df368f4e41f066fd1c82c297b4a1108","190.22.52.236","Mozilla/5.0 (Windows NT 10.0; Win64; x64) AppleWebKit/537.36 (KHTML, like Gecko) Chrome/107.0.0.0 Safari/537.36 Edg/107.0.1418.56","WebKit","Edge","107.0.1418.56","Windows","10.0","[0]","","30","4",""
"2035","You see how a man is playing with a cat <br> T&uacute ves como un hombre est&aacute jugando con un gato","{""Q0"":4}","trial","827","survey-likert","80","369816","0.0-5.0-0.69","47","1","2022-11-29 21:25:12","2df368f4e41f066fd1c82c297b4a1108","190.22.52.236","Mozilla/5.0 (Windows NT 10.0; Win64; x64) AppleWebKit/537.36 (KHTML, like Gecko) Chrome/107.0.0.0 Safari/537.36 Edg/107.0.1418.56","WebKit","Edge","107.0.1418.56","Windows","10.0","[0]","","67","4",""
"1629","You drop a bowling ball on a light bulb <br> T&uacute tiras una bola de boliche a una bombilla","{""Q0"":4}","trial","827","survey-likert","81","371449","0.0-5.0-0.70","47","1","2022-11-29 21:25:12","2df368f4e41f066fd1c82c297b4a1108","190.22.52.236","Mozilla/5.0 (Windows NT 10.0; Win64; x64) AppleWebKit/537.36 (KHTML, like Gecko) Chrome/107.0.0.0 Safari/537.36 Edg/107.0.1418.56","WebKit","Edge","107.0.1418.56","Windows","10.0","[0]","","14","4",""
"2043","You see how an owl is sitting on the branch <br> T&uacute ves como un b&uacuteho est&aacute reposando en una rama","{""Q0"":4}","trial","827","survey-likert","82","373497","0.0-5.0-0.71","47","1","2022-11-29 21:25:12","2df368f4e41f066fd1c82c297b4a1108","190.22.52.236","Mozilla/5.0 (Windows NT 10.0; Win64; x64) AppleWebKit/537.36 (KHTML, like Gecko) Chrome/107.0.0.0 Safari/537.36 Edg/107.0.1418.56","WebKit","Edge","107.0.1418.56","Windows","10.0","[0]","","69","4",""
"4031","
    <p style=""font-size:20px;""> You have completed the experiment portion! </p>
    <p style=""font-size:20px;""> Before you are done, we would like you to answer some basic demographic questions. </p>
    <p style=""font-size:20px;""> Note that your answers to these questions will not affect your compensation/credit. </p>
    <p style=""font-size:20px;""> Click the button below to continue.</p>
    ","0","demo","827","html-button-response","83","377532","0.0-6.0","47","1","2022-11-29 21:25:12","2df368f4e41f066fd1c82c297b4a1108","190.22.52.236","Mozilla/5.0 (Windows NT 10.0; Win64; x64) AppleWebKit/537.36 (KHTML, like Gecko) Chrome/107.0.0.0 Safari/537.36 Edg/107.0.1418.56","WebKit","Edge","107.0.1418.56","Windows","10.0","","","","",""
"20516","","{""Age"":""20"",""Gender"":""Male"",""Education"":""15 years""}","demo","827","survey-text","84","398052","0.0-7.0-0.0","47","1","2022-11-29 21:25:12","2df368f4e41f066fd1c82c297b4a1108","190.22.52.236","Mozilla/5.0 (Windows NT 10.0; Win64; x64) AppleWebKit/537.36 (KHTML, like Gecko) Chrome/107.0.0.0 Safari/537.36 Edg/107.0.1418.56","WebKit","Edge","107.0.1418.56","Windows","10.0","","","","",""
"9823","","{""Race"":[""Other""]}","demo","827","survey-multi-select","85","407883","0.0-7.0-1.0","47","1","2022-11-29 21:25:12","2df368f4e41f066fd1c82c297b4a1108","190.22.52.236","Mozilla/5.0 (Windows NT 10.0; Win64; x64) AppleWebKit/537.36 (KHTML, like Gecko) Chrome/107.0.0.0 Safari/537.36 Edg/107.0.1418.56","WebKit","Edge","107.0.1418.56","Windows","10.0","[0]","","","",""
"9843","","{""Latino"":""Yes"",""Alert"":""Evening""}","demo","827","survey-multi-choice","86","417731","0.0-7.0-2.0","47","1","2022-11-29 21:25:12","2df368f4e41f066fd1c82c297b4a1108","190.22.52.236","Mozilla/5.0 (Windows NT 10.0; Win64; x64) AppleWebKit/537.36 (KHTML, like Gecko) Chrome/107.0.0.0 Safari/537.36 Edg/107.0.1418.56","WebKit","Edge","107.0.1418.56","Windows","10.0","[0,1]","","","",""
"13412","","{""Q0"":""Nothing at all""}","demo","827","survey-text","87","431148","0.0-7.0-3.0","47","1","2022-11-29 21:25:12","2df368f4e41f066fd1c82c297b4a1108","190.22.52.236","Mozilla/5.0 (Windows NT 10.0; Win64; x64) AppleWebKit/537.36 (KHTML, like Gecko) Chrome/107.0.0.0 Safari/537.36 Edg/107.0.1418.56","WebKit","Edge","107.0.1418.56","Windows","10.0","","","","",""
"18759","<p>Thank you for participating! </p><strong>Your completion code is: CXEJB7NH. Please copy-paste this code and submit it on Prolific.</strong><p>Click <a href=""https://drive.google.com/file/d/1c70cdHFlc0AaR6RujLWLJwWkv1RbHQJY/view?usp=sharing"" target=""_blank"" rel=""noopener noreferrer"">here</a> to access the debriefing form and know more about our research. <p> Please click the button below to finish the experiment and save your data.</p> <p> IMPORTANT: Please <strong>do not leave this page </strong> without clicking the button below.</p> <p> You may close the tab/window after you click the button below.","0","","","html-button-response","88","449911","0.0-8.0","47","1","2022-11-29 21:25:12","2df368f4e41f066fd1c82c297b4a1108","190.22.52.236","Mozilla/5.0 (Windows NT 10.0; Win64; x64) AppleWebKit/537.36 (KHTML, like Gecko) Chrome/107.0.0.0 Safari/537.36 Edg/107.0.1418.56","WebKit","Edge","107.0.1418.56","Windows","10.0","","","","",""
