"rt","stimulus","response","typeoftrial","subject","trial_type","trial_index","time_elapsed","internal_node_id","run_id","condition","recorded_at","source_code_version","ip","user_agent","device","browser","browser_version","platform","platform_version","question_order","practice_rating","sentence_num","rating","Experiment"
"31090","
        <p style=""font-size:20px;""> Welcome! Thank you for your interest in our study. </p>
        <p style=""font-size:20px;""> This study is being conducted by researchers at Bowdoin College.</p>
        <p style=""font-size:20px;""> In this experiment, you will be asked to rate the accuracy of English and Spanish translations.</p>
        <p style=""font-size:20px;""> The entire experiment should not last more than 20 minutes. You will be paid $3 USD for your participation. </p>
        <p style=""font-size:20px;""> Please click <a href = ""https://drive.google.com/file/d/1L92a02eEKCpaAEipmqDcBCDR7rsarqFE/view?usp=sharing"" target = ""_blank"">here</a> to read the full consent form. </p>
        <p style=""font-size:20px;""> If you agree to participate, please click the button below to continue to experiment instructions.</p>
        ","0","consent","74793","html-button-response","0","31095","0.0-0.0","40","1","2022-11-29 21:25:05","2df368f4e41f066fd1c82c297b4a1108","93.176.134.116","Mozilla/5.0 (Macintosh; Intel Mac OS X 10_15_7) AppleWebKit/537.36 (KHTML, like Gecko) Chrome/103.0.0.0 Safari/537.36","Macintosh","Chrome","103.0.0.0","OS X","10_15_7","","","","",""
"8795","","{""ID"":""613a6d934255886d925e0649""}","ID","74793","survey-text","1","39898","0.0-1.0","40","1","2022-11-29 21:25:05","2df368f4e41f066fd1c82c297b4a1108","93.176.134.116","Mozilla/5.0 (Macintosh; Intel Mac OS X 10_15_7) AppleWebKit/537.36 (KHTML, like Gecko) Chrome/103.0.0.0 Safari/537.36","Macintosh","Chrome","103.0.0.0","OS X","10_15_7","","","","",""
"18728","
        <p style=""font-size:20px;""> You are about to begin the practice test. </p>
        <p style=""font-size:20px;""> On each trial, you will see a sentence in English and its corresponding Spanish translation. </p>
        <p style=""font-size:20px;""> You will rate the accuracy of the translation on a scale from ""Not at all accurate"" to ""Very accurate."" </p>
        <p style=""font-size:20px;""> If you rate the translation as ""Somewhat innaccurate"" or ""Not at all accurate,"" you will be asked to provide your own translation or a reason why the translation is inaccurate. </p>
        <p style=""font-size:20px;""> Click the button below to continue to the practice session.</p>","0","instructions","74793","html-button-response","2","58629","0.0-2.0","40","1","2022-11-29 21:25:05","2df368f4e41f066fd1c82c297b4a1108","93.176.134.116","Mozilla/5.0 (Macintosh; Intel Mac OS X 10_15_7) AppleWebKit/537.36 (KHTML, like Gecko) Chrome/103.0.0.0 Safari/537.36","Macintosh","Chrome","103.0.0.0","OS X","10_15_7","","","","",""
"15114","You drop a bowling ball on a mircrowave <br> T&uacute tiras una bola de boliche a un horno","{""Q0"":0}","practice","74793","survey-likert","3","73749","0.0-3.0-0.0","40","1","2022-11-29 21:25:05","2df368f4e41f066fd1c82c297b4a1108","93.176.134.116","Mozilla/5.0 (Macintosh; Intel Mac OS X 10_15_7) AppleWebKit/537.36 (KHTML, like Gecko) Chrome/103.0.0.0 Safari/537.36","Macintosh","Chrome","103.0.0.0","OS X","10_15_7","[0]","0","","",""
"11222","You drop a bowling ball on a mircrowave <br> T&uacute tiras una bola de boliche a un horno","{""Q0"":""you""}","practice_low_rate","74793","survey-text","4","84982","0.0-3.0-1.0-0.0","40","1","2022-11-29 21:25:05","2df368f4e41f066fd1c82c297b4a1108","93.176.134.116","Mozilla/5.0 (Macintosh; Intel Mac OS X 10_15_7) AppleWebKit/537.36 (KHTML, like Gecko) Chrome/103.0.0.0 Safari/537.36","Macintosh","Chrome","103.0.0.0","OS X","10_15_7","","","6","",""
"51012","You see how a tiger is playing with a goose <br> T&uacute ves como un le&oacuten come una pizza","{""Q0"":1}","practice","74793","survey-likert","5","135999","0.0-3.0-0.1","40","1","2022-11-29 21:25:05","2df368f4e41f066fd1c82c297b4a1108","93.176.134.116","Mozilla/5.0 (Macintosh; Intel Mac OS X 10_15_7) AppleWebKit/537.36 (KHTML, like Gecko) Chrome/103.0.0.0 Safari/537.36","Macintosh","Chrome","103.0.0.0","OS X","10_15_7","[0]","1","","",""
"21218","You see how a tiger is playing with a goose <br> T&uacute ves como un le&oacuten come una pizza","{""Q0"":""Ves como un tigre está jugando con un ganso""}","practice_low_rate","74793","survey-text","6","157222","0.0-3.0-1.1-0.1","40","1","2022-11-29 21:25:05","2df368f4e41f066fd1c82c297b4a1108","93.176.134.116","Mozilla/5.0 (Macintosh; Intel Mac OS X 10_15_7) AppleWebKit/537.36 (KHTML, like Gecko) Chrome/103.0.0.0 Safari/537.36","Macintosh","Chrome","103.0.0.0","OS X","10_15_7","","","5","",""
"14444","You see how a teacher is drawing a picture <br> T&uacute ves como un maestro pinta una foto","{""Q0"":3}","practice","74793","survey-likert","7","171670","0.0-3.0-0.2","40","1","2022-11-29 21:25:05","2df368f4e41f066fd1c82c297b4a1108","93.176.134.116","Mozilla/5.0 (Macintosh; Intel Mac OS X 10_15_7) AppleWebKit/537.36 (KHTML, like Gecko) Chrome/103.0.0.0 Safari/537.36","Macintosh","Chrome","103.0.0.0","OS X","10_15_7","[0]","3","","",""
"8267","You drop a rock on a phone <br> T&uacute tiras una piedra a un tel&eacutefono","{""Q0"":3}","practice","74793","survey-likert","8","179940","0.0-3.0-0.3","40","1","2022-11-29 21:25:05","2df368f4e41f066fd1c82c297b4a1108","93.176.134.116","Mozilla/5.0 (Macintosh; Intel Mac OS X 10_15_7) AppleWebKit/537.36 (KHTML, like Gecko) Chrome/103.0.0.0 Safari/537.36","Macintosh","Chrome","103.0.0.0","OS X","10_15_7","[0]","3","","",""
"7492","You see how a duck is playing with a pumpkin <br> T&uacute ves como un pato est&aacute jugando con una calabaza","{""Q0"":4}","practice","74793","survey-likert","9","187439","0.0-3.0-0.4","40","1","2022-11-29 21:25:05","2df368f4e41f066fd1c82c297b4a1108","93.176.134.116","Mozilla/5.0 (Macintosh; Intel Mac OS X 10_15_7) AppleWebKit/537.36 (KHTML, like Gecko) Chrome/103.0.0.0 Safari/537.36","Macintosh","Chrome","103.0.0.0","OS X","10_15_7","[0]","4","","",""
"9115","You see how an artist is running <br> T&uacute ves como un artista est&aacute corriendo","{""Q0"":4}","practice","74793","survey-likert","10","196559","0.0-3.0-0.5","40","1","2022-11-29 21:25:05","2df368f4e41f066fd1c82c297b4a1108","93.176.134.116","Mozilla/5.0 (Macintosh; Intel Mac OS X 10_15_7) AppleWebKit/537.36 (KHTML, like Gecko) Chrome/103.0.0.0 Safari/537.36","Macintosh","Chrome","103.0.0.0","OS X","10_15_7","[0]","4","","",""
"5978","<p style=""font-size:20px;"">You have now completed the practice session! </p>
        <p style=""font-size:20px;"">You will now move on to the main experiment. </p>
        <p style=""font-size:20px;"">Please click the button below to continue. </p>","0","movetoexp","74793","html-button-response","11","202544","0.0-4.0","40","1","2022-11-29 21:25:05","2df368f4e41f066fd1c82c297b4a1108","93.176.134.116","Mozilla/5.0 (Macintosh; Intel Mac OS X 10_15_7) AppleWebKit/537.36 (KHTML, like Gecko) Chrome/103.0.0.0 Safari/537.36","Macintosh","Chrome","103.0.0.0","OS X","10_15_7","","","","",""
"16311","You see how a postman is driving a car <br> T&uacute ves como un cartero est&aacute conduciendo un coche","{""Q0"":4}","trial","74793","survey-likert","12","218858","0.0-5.0-0.0","40","1","2022-11-29 21:25:05","2df368f4e41f066fd1c82c297b4a1108","93.176.134.116","Mozilla/5.0 (Macintosh; Intel Mac OS X 10_15_7) AppleWebKit/537.36 (KHTML, like Gecko) Chrome/103.0.0.0 Safari/537.36","Macintosh","Chrome","103.0.0.0","OS X","10_15_7","[0]","","32","4",""
"15367","You drop a bowling ball on a blackberry <br> T&uacute tiras una bola de boliche a una mora","{""Q0"":1}","trial","74793","survey-likert","13","234230","0.0-5.0-0.1","40","1","2022-11-29 21:25:05","2df368f4e41f066fd1c82c297b4a1108","93.176.134.116","Mozilla/5.0 (Macintosh; Intel Mac OS X 10_15_7) AppleWebKit/537.36 (KHTML, like Gecko) Chrome/103.0.0.0 Safari/537.36","Macintosh","Chrome","103.0.0.0","OS X","10_15_7","[0]","","8","1",""
"22613","You drop a bowling ball on a blackberry <br> T&uacute tiras una bola de boliche a una mora","{""Q0"":""Tiras una bola de boliche a un blackberry""}","low_rate","74793","survey-text","14","256850","0.0-5.0-1.1-0.1","40","1","2022-11-29 21:25:05","2df368f4e41f066fd1c82c297b4a1108","93.176.134.116","Mozilla/5.0 (Macintosh; Intel Mac OS X 10_15_7) AppleWebKit/537.36 (KHTML, like Gecko) Chrome/103.0.0.0 Safari/537.36","Macintosh","Chrome","103.0.0.0","OS X","10_15_7","","","8","",""
"13980","You drop a bowling ball on glasses <br> T&uacute tiras una bola de boliche a unas gafas","{""Q0"":4}","trial","74793","survey-likert","15","270833","0.0-5.0-0.2","40","1","2022-11-29 21:25:05","2df368f4e41f066fd1c82c297b4a1108","93.176.134.116","Mozilla/5.0 (Macintosh; Intel Mac OS X 10_15_7) AppleWebKit/537.36 (KHTML, like Gecko) Chrome/103.0.0.0 Safari/537.36","Macintosh","Chrome","103.0.0.0","OS X","10_15_7","[0]","","9","4",""
"14512","You see how a parrot is eating an apple <br> T&uacute ves como un loro est&aacute comiendo una manzana","{""Q0"":4}","trial","74793","survey-likert","16","285351","0.0-5.0-0.3","40","1","2022-11-29 21:25:05","2df368f4e41f066fd1c82c297b4a1108","93.176.134.116","Mozilla/5.0 (Macintosh; Intel Mac OS X 10_15_7) AppleWebKit/537.36 (KHTML, like Gecko) Chrome/103.0.0.0 Safari/537.36","Macintosh","Chrome","103.0.0.0","OS X","10_15_7","[0]","","58","4",""
"12510","You see how a man is shaving his beard <br> T&uacute ves como un hombre se est&aacute afeitando la barba","{""Q0"":4}","trial","74793","survey-likert","17","297869","0.0-5.0-0.4","40","1","2022-11-29 21:25:05","2df368f4e41f066fd1c82c297b4a1108","93.176.134.116","Mozilla/5.0 (Macintosh; Intel Mac OS X 10_15_7) AppleWebKit/537.36 (KHTML, like Gecko) Chrome/103.0.0.0 Safari/537.36","Macintosh","Chrome","103.0.0.0","OS X","10_15_7","[0]","","43","4",""
"18961","You see how a man is boiling potatoes <br> T&uacute ves a un hombre est&aacute hirviendo papas","{""Q0"":2}","trial","74793","survey-likert","18","316837","0.0-5.0-0.5","40","1","2022-11-29 21:25:05","2df368f4e41f066fd1c82c297b4a1108","93.176.134.116","Mozilla/5.0 (Macintosh; Intel Mac OS X 10_15_7) AppleWebKit/537.36 (KHTML, like Gecko) Chrome/103.0.0.0 Safari/537.36","Macintosh","Chrome","103.0.0.0","OS X","10_15_7","[0]","","46","2",""
"20793","You drop a cabbage on the table <br> T&uacute tiras una col a la mesa","{""Q0"":4}","trial","74793","survey-likert","19","337636","0.0-5.0-0.6","40","1","2022-11-29 21:25:05","2df368f4e41f066fd1c82c297b4a1108","93.176.134.116","Mozilla/5.0 (Macintosh; Intel Mac OS X 10_15_7) AppleWebKit/537.36 (KHTML, like Gecko) Chrome/103.0.0.0 Safari/537.36","Macintosh","Chrome","103.0.0.0","OS X","10_15_7","[0]","","35","4",""
"6814","You see how a musician is playing a guitar <br> T&uacute ves como un m&uacutesico est&aacute tocando la guitarra","{""Q0"":4}","trial","74793","survey-likert","20","344454","0.0-5.0-0.7","40","1","2022-11-29 21:25:05","2df368f4e41f066fd1c82c297b4a1108","93.176.134.116","Mozilla/5.0 (Macintosh; Intel Mac OS X 10_15_7) AppleWebKit/537.36 (KHTML, like Gecko) Chrome/103.0.0.0 Safari/537.36","Macintosh","Chrome","103.0.0.0","OS X","10_15_7","[0]","","27","4",""
"5547","You drop a bowling ball on a cracker <br> T&uacute tiras una bola de boliche a una galleta","{""Q0"":4}","trial","74793","survey-likert","21","350004","0.0-5.0-0.8","40","1","2022-11-29 21:25:05","2df368f4e41f066fd1c82c297b4a1108","93.176.134.116","Mozilla/5.0 (Macintosh; Intel Mac OS X 10_15_7) AppleWebKit/537.36 (KHTML, like Gecko) Chrome/103.0.0.0 Safari/537.36","Macintosh","Chrome","103.0.0.0","OS X","10_15_7","[0]","","4","4",""
"9650","You see how an astronaut is putting on a space suit <br> T&uacute ves como un astronauta se est&aacute poniendo su traje espacial","{""Q0"":4}","trial","74793","survey-likert","22","359658","0.0-5.0-0.9","40","1","2022-11-29 21:25:05","2df368f4e41f066fd1c82c297b4a1108","93.176.134.116","Mozilla/5.0 (Macintosh; Intel Mac OS X 10_15_7) AppleWebKit/537.36 (KHTML, like Gecko) Chrome/103.0.0.0 Safari/537.36","Macintosh","Chrome","103.0.0.0","OS X","10_15_7","[0]","","33","4",""
"10380","You drop a bowling ball on an egg flan <br> T&uacute tiras una bola de boliche a un flan","{""Q0"":4}","trial","74793","survey-likert","23","370044","0.0-5.0-0.10","40","1","2022-11-29 21:25:05","2df368f4e41f066fd1c82c297b4a1108","93.176.134.116","Mozilla/5.0 (Macintosh; Intel Mac OS X 10_15_7) AppleWebKit/537.36 (KHTML, like Gecko) Chrome/103.0.0.0 Safari/537.36","Macintosh","Chrome","103.0.0.0","OS X","10_15_7","[0]","","7","4",""
"8289","You drop a bowling ball on a hat <br> T&uacute tiras una bola de boliche a una gorra","{""Q0"":3}","trial","74793","survey-likert","24","378340","0.0-5.0-0.11","40","1","2022-11-29 21:25:05","2df368f4e41f066fd1c82c297b4a1108","93.176.134.116","Mozilla/5.0 (Macintosh; Intel Mac OS X 10_15_7) AppleWebKit/537.36 (KHTML, like Gecko) Chrome/103.0.0.0 Safari/537.36","Macintosh","Chrome","103.0.0.0","OS X","10_15_7","[0]","","10","3",""
"7317","You drop a bowling ball on a tomato <br> T&uacute tiras una bola de boliche a un tomate","{""Q0"":3}","trial","74793","survey-likert","25","385661","0.0-5.0-0.12","40","1","2022-11-29 21:25:05","2df368f4e41f066fd1c82c297b4a1108","93.176.134.116","Mozilla/5.0 (Macintosh; Intel Mac OS X 10_15_7) AppleWebKit/537.36 (KHTML, like Gecko) Chrome/103.0.0.0 Safari/537.36","Macintosh","Chrome","103.0.0.0","OS X","10_15_7","[0]","","23","3",""
"6226","You see how a pilot is reading a book <br> T&uacute ves como un piloto est&aacute leyendo un libro","{""Q0"":4}","trial","74793","survey-likert","26","391893","0.0-5.0-0.13","40","1","2022-11-29 21:25:05","2df368f4e41f066fd1c82c297b4a1108","93.176.134.116","Mozilla/5.0 (Macintosh; Intel Mac OS X 10_15_7) AppleWebKit/537.36 (KHTML, like Gecko) Chrome/103.0.0.0 Safari/537.36","Macintosh","Chrome","103.0.0.0","OS X","10_15_7","[0]","","61","4",""
"11064","You drop a remote on the rug <br> T&uacute tiras un control remoto a la alfombra","{""Q0"":4}","trial","74793","survey-likert","27","402963","0.0-5.0-0.14","40","1","2022-11-29 21:25:05","2df368f4e41f066fd1c82c297b4a1108","93.176.134.116","Mozilla/5.0 (Macintosh; Intel Mac OS X 10_15_7) AppleWebKit/537.36 (KHTML, like Gecko) Chrome/103.0.0.0 Safari/537.36","Macintosh","Chrome","103.0.0.0","OS X","10_15_7","[0]","","39","4",""
"8490","You see how a photographer is taking a photo of a lion <br> T&uacute ves como un fot&oacutegrafo est&aacute tomando una foto de un le&oacuten","{""Q0"":4}","trial","74793","survey-likert","28","411461","0.0-5.0-0.15","40","1","2022-11-29 21:25:05","2df368f4e41f066fd1c82c297b4a1108","93.176.134.116","Mozilla/5.0 (Macintosh; Intel Mac OS X 10_15_7) AppleWebKit/537.36 (KHTML, like Gecko) Chrome/103.0.0.0 Safari/537.36","Macintosh","Chrome","103.0.0.0","OS X","10_15_7","[0]","","72","4",""
"23696","You see how an owl is sitting on the branch <br> T&uacute ves como un b&uacuteho est&aacute reposando en una rama","{""Q0"":3}","trial","74793","survey-likert","29","435164","0.0-5.0-0.16","40","1","2022-11-29 21:25:05","2df368f4e41f066fd1c82c297b4a1108","93.176.134.116","Mozilla/5.0 (Macintosh; Intel Mac OS X 10_15_7) AppleWebKit/537.36 (KHTML, like Gecko) Chrome/103.0.0.0 Safari/537.36","Macintosh","Chrome","103.0.0.0","OS X","10_15_7","[0]","","69","3",""
"10798","You see how an actress is taking a microphone <br> T&uacute ves como una actriz est&aacute agarrando el micr&oacutefono","{""Q0"":4}","trial","74793","survey-likert","30","445968","0.0-5.0-0.17","40","1","2022-11-29 21:25:05","2df368f4e41f066fd1c82c297b4a1108","93.176.134.116","Mozilla/5.0 (Macintosh; Intel Mac OS X 10_15_7) AppleWebKit/537.36 (KHTML, like Gecko) Chrome/103.0.0.0 Safari/537.36","Macintosh","Chrome","103.0.0.0","OS X","10_15_7","[0]","","51","4",""
"8140","You see how a woman is paying with a debit card <br> T&uacute ves como una mujer est&aacute pagando con una tarjeta de d&eacutebito","{""Q0"":4}","trial","74793","survey-likert","31","454116","0.0-5.0-0.18","40","1","2022-11-29 21:25:05","2df368f4e41f066fd1c82c297b4a1108","93.176.134.116","Mozilla/5.0 (Macintosh; Intel Mac OS X 10_15_7) AppleWebKit/537.36 (KHTML, like Gecko) Chrome/103.0.0.0 Safari/537.36","Macintosh","Chrome","103.0.0.0","OS X","10_15_7","[0]","","64","4",""
"15931","You drop a bowling ball on a donut <br> T&uacute tiras una bola de boliche a una rosquilla","{""Q0"":4}","trial","74793","survey-likert","32","470053","0.0-5.0-0.19","40","1","2022-11-29 21:25:05","2df368f4e41f066fd1c82c297b4a1108","93.176.134.116","Mozilla/5.0 (Macintosh; Intel Mac OS X 10_15_7) AppleWebKit/537.36 (KHTML, like Gecko) Chrome/103.0.0.0 Safari/537.36","Macintosh","Chrome","103.0.0.0","OS X","10_15_7","[0]","","17","4",""
"6077","You drop a bowling ball on an egg <br> T&uacute tiras una bola de boliche a un huevo","{""Q0"":4}","trial","74793","survey-likert","33","476137","0.0-5.0-0.20","40","1","2022-11-29 21:25:05","2df368f4e41f066fd1c82c297b4a1108","93.176.134.116","Mozilla/5.0 (Macintosh; Intel Mac OS X 10_15_7) AppleWebKit/537.36 (KHTML, like Gecko) Chrome/103.0.0.0 Safari/537.36","Macintosh","Chrome","103.0.0.0","OS X","10_15_7","[0]","","6","4",""
"6991","You see how a student is writing on a board <br> T&uacute ves como un estudiante est&aacute escribiendo en la pizarra","{""Q0"":4}","trial","74793","survey-likert","34","483134","0.0-5.0-0.21","40","1","2022-11-29 21:25:05","2df368f4e41f066fd1c82c297b4a1108","93.176.134.116","Mozilla/5.0 (Macintosh; Intel Mac OS X 10_15_7) AppleWebKit/537.36 (KHTML, like Gecko) Chrome/103.0.0.0 Safari/537.36","Macintosh","Chrome","103.0.0.0","OS X","10_15_7","[0]","","50","4",""
"12479","You drop a ring on the newspaper <br> T&uacute tiras un anillo al peri&oacutedico","{""Q0"":4}","trial","74793","survey-likert","35","495618","0.0-5.0-0.22","40","1","2022-11-29 21:25:05","2df368f4e41f066fd1c82c297b4a1108","93.176.134.116","Mozilla/5.0 (Macintosh; Intel Mac OS X 10_15_7) AppleWebKit/537.36 (KHTML, like Gecko) Chrome/103.0.0.0 Safari/537.36","Macintosh","Chrome","103.0.0.0","OS X","10_15_7","[0]","","41","4",""
"7381","You drop a keyboard on the bed <br> T&uacute tiras un teclado a la cama","{""Q0"":4}","trial","74793","survey-likert","36","503001","0.0-5.0-0.23","40","1","2022-11-29 21:25:05","2df368f4e41f066fd1c82c297b4a1108","93.176.134.116","Mozilla/5.0 (Macintosh; Intel Mac OS X 10_15_7) AppleWebKit/537.36 (KHTML, like Gecko) Chrome/103.0.0.0 Safari/537.36","Macintosh","Chrome","103.0.0.0","OS X","10_15_7","[0]","","36","4",""
"5577","You see how a man is playing with a cat <br> T&uacute ves como un hombre est&aacute jugando con un gato","{""Q0"":4}","trial","74793","survey-likert","37","508572","0.0-5.0-0.24","40","1","2022-11-29 21:25:05","2df368f4e41f066fd1c82c297b4a1108","93.176.134.116","Mozilla/5.0 (Macintosh; Intel Mac OS X 10_15_7) AppleWebKit/537.36 (KHTML, like Gecko) Chrome/103.0.0.0 Safari/537.36","Macintosh","Chrome","103.0.0.0","OS X","10_15_7","[0]","","67","4",""
"6748","You drop a bowling ball on a chocolate ice-cream <br> T&uacute tiras una bola de boliche a un helado de chocolate","{""Q0"":4}","trial","74793","survey-likert","38","515315","0.0-5.0-0.25","40","1","2022-11-29 21:25:05","2df368f4e41f066fd1c82c297b4a1108","93.176.134.116","Mozilla/5.0 (Macintosh; Intel Mac OS X 10_15_7) AppleWebKit/537.36 (KHTML, like Gecko) Chrome/103.0.0.0 Safari/537.36","Macintosh","Chrome","103.0.0.0","OS X","10_15_7","[0]","","11","4",""
"16377","You see how a police officer is talking on the phone <br> T&uacute ves como un polic&iacutea est&aacute hablando por el tel&eacutefono","{""Q0"":4}","trial","74793","survey-likert","39","531688","0.0-5.0-0.26","40","1","2022-11-29 21:25:05","2df368f4e41f066fd1c82c297b4a1108","93.176.134.116","Mozilla/5.0 (Macintosh; Intel Mac OS X 10_15_7) AppleWebKit/537.36 (KHTML, like Gecko) Chrome/103.0.0.0 Safari/537.36","Macintosh","Chrome","103.0.0.0","OS X","10_15_7","[0]","","62","4",""
"8741","You see how a woman is taking money out of a wallet <br> T&uacute ves como una mujer est&aacute sacando dinero de su billetera","{""Q0"":4}","trial","74793","survey-likert","40","540433","0.0-5.0-0.27","40","1","2022-11-29 21:25:05","2df368f4e41f066fd1c82c297b4a1108","93.176.134.116","Mozilla/5.0 (Macintosh; Intel Mac OS X 10_15_7) AppleWebKit/537.36 (KHTML, like Gecko) Chrome/103.0.0.0 Safari/537.36","Macintosh","Chrome","103.0.0.0","OS X","10_15_7","[0]","","44","4",""
"13384","You see how a mouse is eating cheese <br> T&uacute ves como el rat&oacuten est&aacute comiendo queso","{""Q0"":3}","trial","74793","survey-likert","41","553820","0.0-5.0-0.28","40","1","2022-11-29 21:25:05","2df368f4e41f066fd1c82c297b4a1108","93.176.134.116","Mozilla/5.0 (Macintosh; Intel Mac OS X 10_15_7) AppleWebKit/537.36 (KHTML, like Gecko) Chrome/103.0.0.0 Safari/537.36","Macintosh","Chrome","103.0.0.0","OS X","10_15_7","[0]","","56","3",""
"12295","You see how a panda is resting on a tree <br> T&uacute ves como un panda est&aacute descansando en un &aacuterbol","{""Q0"":4}","trial","74793","survey-likert","42","566120","0.0-5.0-0.29","40","1","2022-11-29 21:25:05","2df368f4e41f066fd1c82c297b4a1108","93.176.134.116","Mozilla/5.0 (Macintosh; Intel Mac OS X 10_15_7) AppleWebKit/537.36 (KHTML, like Gecko) Chrome/103.0.0.0 Safari/537.36","Macintosh","Chrome","103.0.0.0","OS X","10_15_7","[0]","","57","4",""
"10293","You see how a dentist is drinking a can of cola <br> T&uacute ves como un dentista est&aacute bebiendo una lata de cola","{""Q0"":4}","trial","74793","survey-likert","43","576419","0.0-5.0-0.30","40","1","2022-11-29 21:25:05","2df368f4e41f066fd1c82c297b4a1108","93.176.134.116","Mozilla/5.0 (Macintosh; Intel Mac OS X 10_15_7) AppleWebKit/537.36 (KHTML, like Gecko) Chrome/103.0.0.0 Safari/537.36","Macintosh","Chrome","103.0.0.0","OS X","10_15_7","[0]","","47","4",""
"9244","You drop a bowling ball on an iPhone <br> T&uacute tiras una bola de boliche a un iPhone","{""Q0"":4}","trial","74793","survey-likert","44","585670","0.0-5.0-0.31","40","1","2022-11-29 21:25:05","2df368f4e41f066fd1c82c297b4a1108","93.176.134.116","Mozilla/5.0 (Macintosh; Intel Mac OS X 10_15_7) AppleWebKit/537.36 (KHTML, like Gecko) Chrome/103.0.0.0 Safari/537.36","Macintosh","Chrome","103.0.0.0","OS X","10_15_7","[0]","","13","4",""
"8140","You drop a bowling ball on a chocolate muffin <br> T&uacute tiras una bola de boliche a una magdalena de chocolate","{""Q0"":4}","trial","74793","survey-likert","45","593817","0.0-5.0-0.32","40","1","2022-11-29 21:25:05","2df368f4e41f066fd1c82c297b4a1108","93.176.134.116","Mozilla/5.0 (Macintosh; Intel Mac OS X 10_15_7) AppleWebKit/537.36 (KHTML, like Gecko) Chrome/103.0.0.0 Safari/537.36","Macintosh","Chrome","103.0.0.0","OS X","10_15_7","[0]","","16","4",""
"6467","You see how a puppy is playing with a ball <br> T&uacute ves como un cachorro est&aacute jugando con una pelota","{""Q0"":4}","trial","74793","survey-likert","46","600288","0.0-5.0-0.33","40","1","2022-11-29 21:25:05","2df368f4e41f066fd1c82c297b4a1108","93.176.134.116","Mozilla/5.0 (Macintosh; Intel Mac OS X 10_15_7) AppleWebKit/537.36 (KHTML, like Gecko) Chrome/103.0.0.0 Safari/537.36","Macintosh","Chrome","103.0.0.0","OS X","10_15_7","[0]","","34","4",""
"8527","You drop a toothbrush on the sponge <br> T&uacute tiras un cepillo de dientes en la esponja","{""Q0"":4}","trial","74793","survey-likert","47","608822","0.0-5.0-0.34","40","1","2022-11-29 21:25:05","2df368f4e41f066fd1c82c297b4a1108","93.176.134.116","Mozilla/5.0 (Macintosh; Intel Mac OS X 10_15_7) AppleWebKit/537.36 (KHTML, like Gecko) Chrome/103.0.0.0 Safari/537.36","Macintosh","Chrome","103.0.0.0","OS X","10_15_7","[0]","","25","4",""
"10274","You see how a butterfly is sitting on a flower <br> T&uacute ves como una mariposa est&aacute reposando en una flor","{""Q0"":3}","trial","74793","survey-likert","48","619103","0.0-5.0-0.35","40","1","2022-11-29 21:25:05","2df368f4e41f066fd1c82c297b4a1108","93.176.134.116","Mozilla/5.0 (Macintosh; Intel Mac OS X 10_15_7) AppleWebKit/537.36 (KHTML, like Gecko) Chrome/103.0.0.0 Safari/537.36","Macintosh","Chrome","103.0.0.0","OS X","10_15_7","[0]","","59","3",""
"8246","You see how a boy is peeling a banana <br> T&uacute ves como un ni&ntildeo est&aacute pelando una banana","{""Q0"":4}","trial","74793","survey-likert","49","627354","0.0-5.0-0.36","40","1","2022-11-29 21:25:05","2df368f4e41f066fd1c82c297b4a1108","93.176.134.116","Mozilla/5.0 (Macintosh; Intel Mac OS X 10_15_7) AppleWebKit/537.36 (KHTML, like Gecko) Chrome/103.0.0.0 Safari/537.36","Macintosh","Chrome","103.0.0.0","OS X","10_15_7","[0]","","30","4",""
"5712","You see how a giraffe is playing with a zebra <br> T&uacute ves como una jirafa est&aacute jugando con una cebra","{""Q0"":4}","trial","74793","survey-likert","50","633073","0.0-5.0-0.37","40","1","2022-11-29 21:25:05","2df368f4e41f066fd1c82c297b4a1108","93.176.134.116","Mozilla/5.0 (Macintosh; Intel Mac OS X 10_15_7) AppleWebKit/537.36 (KHTML, like Gecko) Chrome/103.0.0.0 Safari/537.36","Macintosh","Chrome","103.0.0.0","OS X","10_15_7","[0]","","65","4",""
"6691","You drop a bowling ball on a light bulb <br> T&uacute tiras una bola de boliche a una bombilla","{""Q0"":4}","trial","74793","survey-likert","51","639771","0.0-5.0-0.38","40","1","2022-11-29 21:25:05","2df368f4e41f066fd1c82c297b4a1108","93.176.134.116","Mozilla/5.0 (Macintosh; Intel Mac OS X 10_15_7) AppleWebKit/537.36 (KHTML, like Gecko) Chrome/103.0.0.0 Safari/537.36","Macintosh","Chrome","103.0.0.0","OS X","10_15_7","[0]","","14","4",""
"23064","You see how an old man is hammering a nail <br> T&uacute ves como un hombre anciano est&aacute martillando un clavo","{""Q0"":4}","trial","74793","survey-likert","52","662840","0.0-5.0-0.39","40","1","2022-11-29 21:25:05","2df368f4e41f066fd1c82c297b4a1108","93.176.134.116","Mozilla/5.0 (Macintosh; Intel Mac OS X 10_15_7) AppleWebKit/537.36 (KHTML, like Gecko) Chrome/103.0.0.0 Safari/537.36","Macintosh","Chrome","103.0.0.0","OS X","10_15_7","[0]","","29","4",""
"29211","You see how a cook is taking a knife <br> T&uacute ves como un cocinero est&aacute agarrando un cuchillo","{""Q0"":4}","trial","74793","survey-likert","53","692058","0.0-5.0-0.40","40","1","2022-11-29 21:25:05","2df368f4e41f066fd1c82c297b4a1108","93.176.134.116","Mozilla/5.0 (Macintosh; Intel Mac OS X 10_15_7) AppleWebKit/537.36 (KHTML, like Gecko) Chrome/103.0.0.0 Safari/537.36","Macintosh","Chrome","103.0.0.0","OS X","10_15_7","[0]","","71","4",""
"4930","You see how an elephant is eating a watermelon <br> T&uacute ves como un elefante est&aacute comiendo una sand&iacutea","{""Q0"":4}","trial","74793","survey-likert","54","696992","0.0-5.0-0.41","40","1","2022-11-29 21:25:05","2df368f4e41f066fd1c82c297b4a1108","93.176.134.116","Mozilla/5.0 (Macintosh; Intel Mac OS X 10_15_7) AppleWebKit/537.36 (KHTML, like Gecko) Chrome/103.0.0.0 Safari/537.36","Macintosh","Chrome","103.0.0.0","OS X","10_15_7","[0]","","31","4",""
"5794","You drop a bowling ball on an iPAD <br> T&uacute tiras una bola de boliche a un iPad","{""Q0"":3}","trial","74793","survey-likert","55","702792","0.0-5.0-0.42","40","1","2022-11-29 21:25:05","2df368f4e41f066fd1c82c297b4a1108","93.176.134.116","Mozilla/5.0 (Macintosh; Intel Mac OS X 10_15_7) AppleWebKit/537.36 (KHTML, like Gecko) Chrome/103.0.0.0 Safari/537.36","Macintosh","Chrome","103.0.0.0","OS X","10_15_7","[0]","","12","3",""
"9194","You see how a cat is drinking water from a bowl <br> T&uacute ves como un gato est&aacute bebiendo agua de un cuenco","{""Q0"":4}","trial","74793","survey-likert","56","711993","0.0-5.0-0.43","40","1","2022-11-29 21:25:05","2df368f4e41f066fd1c82c297b4a1108","93.176.134.116","Mozilla/5.0 (Macintosh; Intel Mac OS X 10_15_7) AppleWebKit/537.36 (KHTML, like Gecko) Chrome/103.0.0.0 Safari/537.36","Macintosh","Chrome","103.0.0.0","OS X","10_15_7","[0]","","28","4",""
"5847","You see how a nurse is taking a syringe <br> T&uacute ves como una enfermera est&aacute agarrando una jeringuilla","{""Q0"":4}","trial","74793","survey-likert","57","717845","0.0-5.0-0.44","40","1","2022-11-29 21:25:05","2df368f4e41f066fd1c82c297b4a1108","93.176.134.116","Mozilla/5.0 (Macintosh; Intel Mac OS X 10_15_7) AppleWebKit/537.36 (KHTML, like Gecko) Chrome/103.0.0.0 Safari/537.36","Macintosh","Chrome","103.0.0.0","OS X","10_15_7","[0]","","48","4",""
"5073","You drop a bowling ball on a strawberry <br> T&uacute tiras una bola de boliche a una fresa","{""Q0"":4}","trial","74793","survey-likert","58","722926","0.0-5.0-0.45","40","1","2022-11-29 21:25:05","2df368f4e41f066fd1c82c297b4a1108","93.176.134.116","Mozilla/5.0 (Macintosh; Intel Mac OS X 10_15_7) AppleWebKit/537.36 (KHTML, like Gecko) Chrome/103.0.0.0 Safari/537.36","Macintosh","Chrome","103.0.0.0","OS X","10_15_7","[0]","","20","4",""
"7133","You see how a thief is stealing a wallet <br> T&uacute ves como un ladr&oacuten est&aacute robando una billetera","{""Q0"":4}","trial","74793","survey-likert","59","730063","0.0-5.0-0.46","40","1","2022-11-29 21:25:05","2df368f4e41f066fd1c82c297b4a1108","93.176.134.116","Mozilla/5.0 (Macintosh; Intel Mac OS X 10_15_7) AppleWebKit/537.36 (KHTML, like Gecko) Chrome/103.0.0.0 Safari/537.36","Macintosh","Chrome","103.0.0.0","OS X","10_15_7","[0]","","68","4",""
"8127","You see how a doctor is taking a stethoscope <br> T&uacute ves como un doctor est&aacute agarrando un estetoscopio","{""Q0"":4}","trial","74793","survey-likert","60","738198","0.0-5.0-0.47","40","1","2022-11-29 21:25:05","2df368f4e41f066fd1c82c297b4a1108","93.176.134.116","Mozilla/5.0 (Macintosh; Intel Mac OS X 10_15_7) AppleWebKit/537.36 (KHTML, like Gecko) Chrome/103.0.0.0 Safari/537.36","Macintosh","Chrome","103.0.0.0","OS X","10_15_7","[0]","","49","4",""
"9240","You drop a pencil on the shoe <br> T&uacute tiras un l&aacutepiz al zapato","{""Q0"":3}","trial","74793","survey-likert","61","747445","0.0-5.0-0.48","40","1","2022-11-29 21:25:05","2df368f4e41f066fd1c82c297b4a1108","93.176.134.116","Mozilla/5.0 (Macintosh; Intel Mac OS X 10_15_7) AppleWebKit/537.36 (KHTML, like Gecko) Chrome/103.0.0.0 Safari/537.36","Macintosh","Chrome","103.0.0.0","OS X","10_15_7","[0]","","40","3",""
"10097","You drop a needle on the mouse pad <br> T&uacute tiras una aguja a la alfombrilla para el rat&oacuten","{""Q0"":4}","trial","74793","survey-likert","62","757546","0.0-5.0-0.49","40","1","2022-11-29 21:25:05","2df368f4e41f066fd1c82c297b4a1108","93.176.134.116","Mozilla/5.0 (Macintosh; Intel Mac OS X 10_15_7) AppleWebKit/537.36 (KHTML, like Gecko) Chrome/103.0.0.0 Safari/537.36","Macintosh","Chrome","103.0.0.0","OS X","10_15_7","[0]","","42","4",""
"11129","You see how a hairdresser is taking scissors <br> T&uacute ves como una peluquera est&aacute agarrando las tijeras","{""Q0"":4}","trial","74793","survey-likert","63","768681","0.0-5.0-0.50","40","1","2022-11-29 21:25:05","2df368f4e41f066fd1c82c297b4a1108","93.176.134.116","Mozilla/5.0 (Macintosh; Intel Mac OS X 10_15_7) AppleWebKit/537.36 (KHTML, like Gecko) Chrome/103.0.0.0 Safari/537.36","Macintosh","Chrome","103.0.0.0","OS X","10_15_7","[0]","","60","4",""
"5027","You see how a donkey is drinking water <br> T&uacute ves como un burro est&aacute bebiendo agua","{""Q0"":4}","trial","74793","survey-likert","64","773714","0.0-5.0-0.51","40","1","2022-11-29 21:25:05","2df368f4e41f066fd1c82c297b4a1108","93.176.134.116","Mozilla/5.0 (Macintosh; Intel Mac OS X 10_15_7) AppleWebKit/537.36 (KHTML, like Gecko) Chrome/103.0.0.0 Safari/537.36","Macintosh","Chrome","103.0.0.0","OS X","10_15_7","[0]","","45","4",""
"4927","You drop a bowling ball on a rice cake <br> T&uacute tiras una bola de boliche a una tortita de arroz","{""Q0"":4}","trial","74793","survey-likert","65","778648","0.0-5.0-0.52","40","1","2022-11-29 21:25:05","2df368f4e41f066fd1c82c297b4a1108","93.176.134.116","Mozilla/5.0 (Macintosh; Intel Mac OS X 10_15_7) AppleWebKit/537.36 (KHTML, like Gecko) Chrome/103.0.0.0 Safari/537.36","Macintosh","Chrome","103.0.0.0","OS X","10_15_7","[0]","","18","4",""
"4342","You drop a bowling ball on a ceramic plate <br> T&uacute tiras una bola de boliche a un plato de cer&aacutemica","{""Q0"":4}","trial","74793","survey-likert","66","782998","0.0-5.0-0.53","40","1","2022-11-29 21:25:05","2df368f4e41f066fd1c82c297b4a1108","93.176.134.116","Mozilla/5.0 (Macintosh; Intel Mac OS X 10_15_7) AppleWebKit/537.36 (KHTML, like Gecko) Chrome/103.0.0.0 Safari/537.36","Macintosh","Chrome","103.0.0.0","OS X","10_15_7","[0]","","19","4",""
"7127","You see how a kitten is playing in the sandbox <br> T&uacute ves como un gatito est&aacute jugando en la caja de arena","{""Q0"":4}","trial","74793","survey-likert","67","790131","0.0-5.0-0.54","40","1","2022-11-29 21:25:05","2df368f4e41f066fd1c82c297b4a1108","93.176.134.116","Mozilla/5.0 (Macintosh; Intel Mac OS X 10_15_7) AppleWebKit/537.36 (KHTML, like Gecko) Chrome/103.0.0.0 Safari/537.36","Macintosh","Chrome","103.0.0.0","OS X","10_15_7","[0]","","52","4",""
"6829","You drop a bowling ball on a tile <br> T&uacute tiras una bola de boliche a una baldosa","{""Q0"":4}","trial","74793","survey-likert","68","796966","0.0-5.0-0.55","40","1","2022-11-29 21:25:05","2df368f4e41f066fd1c82c297b4a1108","93.176.134.116","Mozilla/5.0 (Macintosh; Intel Mac OS X 10_15_7) AppleWebKit/537.36 (KHTML, like Gecko) Chrome/103.0.0.0 Safari/537.36","Macintosh","Chrome","103.0.0.0","OS X","10_15_7","[0]","","22","4",""
"7129","You drop a bowling ball on a wine glass <br> T&uacute tiras una bola de boliche a una copa de vino","{""Q0"":4}","trial","74793","survey-likert","69","804102","0.0-5.0-0.56","40","1","2022-11-29 21:25:05","2df368f4e41f066fd1c82c297b4a1108","93.176.134.116","Mozilla/5.0 (Macintosh; Intel Mac OS X 10_15_7) AppleWebKit/537.36 (KHTML, like Gecko) Chrome/103.0.0.0 Safari/537.36","Macintosh","Chrome","103.0.0.0","OS X","10_15_7","[0]","","5","4",""
"7692","You drop a bowling ball on a mirror <br> T&uacute tiras una bola de boliche a un espejo","{""Q0"":4}","trial","74793","survey-likert","70","811800","0.0-5.0-0.57","40","1","2022-11-29 21:25:05","2df368f4e41f066fd1c82c297b4a1108","93.176.134.116","Mozilla/5.0 (Macintosh; Intel Mac OS X 10_15_7) AppleWebKit/537.36 (KHTML, like Gecko) Chrome/103.0.0.0 Safari/537.36","Macintosh","Chrome","103.0.0.0","OS X","10_15_7","[0]","","15","4",""
"6679","You drop a watch on the laptop <br> T&uacute tiras un reloj al port&aacutetil","{""Q0"":4}","trial","74793","survey-likert","71","818486","0.0-5.0-0.58","40","1","2022-11-29 21:25:05","2df368f4e41f066fd1c82c297b4a1108","93.176.134.116","Mozilla/5.0 (Macintosh; Intel Mac OS X 10_15_7) AppleWebKit/537.36 (KHTML, like Gecko) Chrome/103.0.0.0 Safari/537.36","Macintosh","Chrome","103.0.0.0","OS X","10_15_7","[0]","","37","4",""
"4661","You drop a bowling ball on a piece of cake <br> T&uacute tiras una bola de boliche a un trozo de pastel","{""Q0"":4}","trial","74793","survey-likert","72","823155","0.0-5.0-0.59","40","1","2022-11-29 21:25:05","2df368f4e41f066fd1c82c297b4a1108","93.176.134.116","Mozilla/5.0 (Macintosh; Intel Mac OS X 10_15_7) AppleWebKit/537.36 (KHTML, like Gecko) Chrome/103.0.0.0 Safari/537.36","Macintosh","Chrome","103.0.0.0","OS X","10_15_7","[0]","","2","4",""
"3539","You drop a towel on the TV <br> T&uacute tiras una toalla a la televisi&oacuten","{""Q0"":4}","trial","74793","survey-likert","73","826702","0.0-5.0-0.60","40","1","2022-11-29 21:25:05","2df368f4e41f066fd1c82c297b4a1108","93.176.134.116","Mozilla/5.0 (Macintosh; Intel Mac OS X 10_15_7) AppleWebKit/537.36 (KHTML, like Gecko) Chrome/103.0.0.0 Safari/537.36","Macintosh","Chrome","103.0.0.0","OS X","10_15_7","[0]","","53","4",""
"9278","You see how a teenage girl is playing the piano <br> T&uacute ves como una ni&ntildea adolescente est&aacute tocando el piano","{""Q0"":4}","trial","74793","survey-likert","74","835988","0.0-5.0-0.61","40","1","2022-11-29 21:25:05","2df368f4e41f066fd1c82c297b4a1108","93.176.134.116","Mozilla/5.0 (Macintosh; Intel Mac OS X 10_15_7) AppleWebKit/537.36 (KHTML, like Gecko) Chrome/103.0.0.0 Safari/537.36","Macintosh","Chrome","103.0.0.0","OS X","10_15_7","[0]","","54","4",""
"4557","You drop a bowling ball on a porcelain figure <br> T&uacute tiras una bola de boliche a una figura de porcelana","{""Q0"":4}","trial","74793","survey-likert","75","840552","0.0-5.0-0.62","40","1","2022-11-29 21:25:05","2df368f4e41f066fd1c82c297b4a1108","93.176.134.116","Mozilla/5.0 (Macintosh; Intel Mac OS X 10_15_7) AppleWebKit/537.36 (KHTML, like Gecko) Chrome/103.0.0.0 Safari/537.36","Macintosh","Chrome","103.0.0.0","OS X","10_15_7","[0]","","1","4",""
"5361","You drop a bowling ball on a paper cup <br> T&uacute tiras una bola de boliche a un vaso de papel","{""Q0"":4}","trial","74793","survey-likert","76","845918","0.0-5.0-0.63","40","1","2022-11-29 21:25:05","2df368f4e41f066fd1c82c297b4a1108","93.176.134.116","Mozilla/5.0 (Macintosh; Intel Mac OS X 10_15_7) AppleWebKit/537.36 (KHTML, like Gecko) Chrome/103.0.0.0 Safari/537.36","Macintosh","Chrome","103.0.0.0","OS X","10_15_7","[0]","","24","4",""
"19629","You drop a bowling ball on an empty can of beer <br> T&uacute tiras una bola de boliche a una lata de cerveza vac&iacutea","{""Q0"":4}","trial","74793","survey-likert","77","865553","0.0-5.0-0.64","40","1","2022-11-29 21:25:05","2df368f4e41f066fd1c82c297b4a1108","93.176.134.116","Mozilla/5.0 (Macintosh; Intel Mac OS X 10_15_7) AppleWebKit/537.36 (KHTML, like Gecko) Chrome/103.0.0.0 Safari/537.36","Macintosh","Chrome","103.0.0.0","OS X","10_15_7","[0]","","3","4",""
"4563","You drop a thermometer on the box <br> T&uacute tiras un term&oacutemetro a la caja","{""Q0"":4}","trial","74793","survey-likert","78","870121","0.0-5.0-0.65","40","1","2022-11-29 21:25:05","2df368f4e41f066fd1c82c297b4a1108","93.176.134.116","Mozilla/5.0 (Macintosh; Intel Mac OS X 10_15_7) AppleWebKit/537.36 (KHTML, like Gecko) Chrome/103.0.0.0 Safari/537.36","Macintosh","Chrome","103.0.0.0","OS X","10_15_7","[0]","","70","4",""
"5213","You see how a zebra is playing with a horse <br> T&uacute ves como una cebra est&aacute jugando con un caballo","{""Q0"":4}","trial","74793","survey-likert","79","875340","0.0-5.0-0.66","40","1","2022-11-29 21:25:05","2df368f4e41f066fd1c82c297b4a1108","93.176.134.116","Mozilla/5.0 (Macintosh; Intel Mac OS X 10_15_7) AppleWebKit/537.36 (KHTML, like Gecko) Chrome/103.0.0.0 Safari/537.36","Macintosh","Chrome","103.0.0.0","OS X","10_15_7","[0]","","66","4",""
"4723","You see how a president is writing in the notebook <br> T&uacute ves como un presidente est&aacute escribiendo en la libreta","{""Q0"":4}","trial","74793","survey-likert","80","880071","0.0-5.0-0.67","40","1","2022-11-29 21:25:05","2df368f4e41f066fd1c82c297b4a1108","93.176.134.116","Mozilla/5.0 (Macintosh; Intel Mac OS X 10_15_7) AppleWebKit/537.36 (KHTML, like Gecko) Chrome/103.0.0.0 Safari/537.36","Macintosh","Chrome","103.0.0.0","OS X","10_15_7","[0]","","63","4",""
"18149","You drop a cushion on the magazine <br> T&uacute tiras un coj&iacuten a la revista","{""Q0"":4}","trial","74793","survey-likert","81","898226","0.0-5.0-0.68","40","1","2022-11-29 21:25:05","2df368f4e41f066fd1c82c297b4a1108","93.176.134.116","Mozilla/5.0 (Macintosh; Intel Mac OS X 10_15_7) AppleWebKit/537.36 (KHTML, like Gecko) Chrome/103.0.0.0 Safari/537.36","Macintosh","Chrome","103.0.0.0","OS X","10_15_7","[0]","","38","4",""
"4007","You drop a fork on the plate <br> T&uacute tiras un tenedor al plato","{""Q0"":4}","trial","74793","survey-likert","82","902242","0.0-5.0-0.69","40","1","2022-11-29 21:25:05","2df368f4e41f066fd1c82c297b4a1108","93.176.134.116","Mozilla/5.0 (Macintosh; Intel Mac OS X 10_15_7) AppleWebKit/537.36 (KHTML, like Gecko) Chrome/103.0.0.0 Safari/537.36","Macintosh","Chrome","103.0.0.0","OS X","10_15_7","[0]","","26","4",""
"7110","You see how a horse is chewing hay <br> T&uacute ves como un caballo est&aacute masticando el heno","{""Q0"":4}","trial","74793","survey-likert","83","909361","0.0-5.0-0.70","40","1","2022-11-29 21:25:05","2df368f4e41f066fd1c82c297b4a1108","93.176.134.116","Mozilla/5.0 (Macintosh; Intel Mac OS X 10_15_7) AppleWebKit/537.36 (KHTML, like Gecko) Chrome/103.0.0.0 Safari/537.36","Macintosh","Chrome","103.0.0.0","OS X","10_15_7","[0]","","55","4",""
"4341","You drop a bowling ball on a piece of sushi <br> T&uacute tiras una bola de boliche a un pedazo de sushi","{""Q0"":4}","trial","74793","survey-likert","84","913710","0.0-5.0-0.71","40","1","2022-11-29 21:25:05","2df368f4e41f066fd1c82c297b4a1108","93.176.134.116","Mozilla/5.0 (Macintosh; Intel Mac OS X 10_15_7) AppleWebKit/537.36 (KHTML, like Gecko) Chrome/103.0.0.0 Safari/537.36","Macintosh","Chrome","103.0.0.0","OS X","10_15_7","[0]","","21","4",""
"5043","
    <p style=""font-size:20px;""> You have completed the experiment portion! </p>
    <p style=""font-size:20px;""> Before you are done, we would like you to answer some basic demographic questions. </p>
    <p style=""font-size:20px;""> Note that your answers to these questions will not affect your compensation/credit. </p>
    <p style=""font-size:20px;""> Click the button below to continue.</p>
    ","0","demo","74793","html-button-response","85","918762","0.0-6.0","40","1","2022-11-29 21:25:05","2df368f4e41f066fd1c82c297b4a1108","93.176.134.116","Mozilla/5.0 (Macintosh; Intel Mac OS X 10_15_7) AppleWebKit/537.36 (KHTML, like Gecko) Chrome/103.0.0.0 Safari/537.36","Macintosh","Chrome","103.0.0.0","OS X","10_15_7","","","","",""
"87082","","{""Age"":""25"",""Gender"":""female"",""Education"":""9""}","demo","74793","survey-text","86","1005851","0.0-7.0-0.0","40","1","2022-11-29 21:25:05","2df368f4e41f066fd1c82c297b4a1108","93.176.134.116","Mozilla/5.0 (Macintosh; Intel Mac OS X 10_15_7) AppleWebKit/537.36 (KHTML, like Gecko) Chrome/103.0.0.0 Safari/537.36","Macintosh","Chrome","103.0.0.0","OS X","10_15_7","","","","",""
"23620","","{""Race"":[""Other""]}","demo","74793","survey-multi-select","87","1029483","0.0-7.0-1.0","40","1","2022-11-29 21:25:05","2df368f4e41f066fd1c82c297b4a1108","93.176.134.116","Mozilla/5.0 (Macintosh; Intel Mac OS X 10_15_7) AppleWebKit/537.36 (KHTML, like Gecko) Chrome/103.0.0.0 Safari/537.36","Macintosh","Chrome","103.0.0.0","OS X","10_15_7","[0]","","","",""
"13813","","{""Latino"":""Yes"",""Alert"":""Evening""}","demo","74793","survey-multi-choice","88","1043304","0.0-7.0-2.0","40","1","2022-11-29 21:25:05","2df368f4e41f066fd1c82c297b4a1108","93.176.134.116","Mozilla/5.0 (Macintosh; Intel Mac OS X 10_15_7) AppleWebKit/537.36 (KHTML, like Gecko) Chrome/103.0.0.0 Safari/537.36","Macintosh","Chrome","103.0.0.0","OS X","10_15_7","[0,1]","","","",""
"17358","","{""Q0"":""no""}","demo","74793","survey-text","89","1060672","0.0-7.0-3.0","40","1","2022-11-29 21:25:05","2df368f4e41f066fd1c82c297b4a1108","93.176.134.116","Mozilla/5.0 (Macintosh; Intel Mac OS X 10_15_7) AppleWebKit/537.36 (KHTML, like Gecko) Chrome/103.0.0.0 Safari/537.36","Macintosh","Chrome","103.0.0.0","OS X","10_15_7","","","","",""
"13977","<p>Thank you for participating! </p><strong>Your completion code is: CXEJB7NH. Please copy-paste this code and submit it on Prolific.</strong><p>Click <a href=""https://drive.google.com/file/d/1c70cdHFlc0AaR6RujLWLJwWkv1RbHQJY/view?usp=sharing"" target=""_blank"" rel=""noopener noreferrer"">here</a> to access the debriefing form and know more about our research. <p> Please click the button below to finish the experiment and save your data.</p> <p> IMPORTANT: Please <strong>do not leave this page </strong> without clicking the button below.</p> <p> You may close the tab/window after you click the button below.","0","","","html-button-response","90","1074655","0.0-8.0","40","1","2022-11-29 21:25:05","2df368f4e41f066fd1c82c297b4a1108","93.176.134.116","Mozilla/5.0 (Macintosh; Intel Mac OS X 10_15_7) AppleWebKit/537.36 (KHTML, like Gecko) Chrome/103.0.0.0 Safari/537.36","Macintosh","Chrome","103.0.0.0","OS X","10_15_7","","","","",""
