"rt","stimulus","response","typeoftrial","subject","trial_type","trial_index","time_elapsed","internal_node_id","run_id","condition","recorded_at","source_code_version","ip","user_agent","device","browser","browser_version","platform","platform_version","question_order","practice_rating","sentence_num","rating","Experiment"
"46851","
        <p style=""font-size:20px;""> Welcome! Thank you for your interest in our study. </p>
        <p style=""font-size:20px;""> This study is being conducted by researchers at Bowdoin College.</p>
        <p style=""font-size:20px;""> In this experiment, you will be asked to rate the accuracy of English and Spanish translations.</p>
        <p style=""font-size:20px;""> The entire experiment should not last more than 20 minutes. You will be paid $3 USD for your participation. </p>
        <p style=""font-size:20px;""> Please click <a href = ""https://drive.google.com/file/d/1L92a02eEKCpaAEipmqDcBCDR7rsarqFE/view?usp=sharing"" target = ""_blank"">here</a> to read the full consent form. </p>
        <p style=""font-size:20px;""> If you agree to participate, please click the button below to continue to experiment instructions.</p>
        ","0","consent","14298","html-button-response","0","46852","0.0-0.0","20","1","2022-11-29 21:24:49","2df368f4e41f066fd1c82c297b4a1108","190.162.241.154","Mozilla/5.0 (Windows NT 10.0; Win64; x64; rv:107.0) Gecko/20100101 Firefox/107.0","","Firefox","107.0","Windows","10.0","","","","",""
"7396","","{""ID"":""605d54bdad62f3a65e139402""}","ID","14298","survey-text","1","54258","0.0-1.0","20","1","2022-11-29 21:24:49","2df368f4e41f066fd1c82c297b4a1108","190.162.241.154","Mozilla/5.0 (Windows NT 10.0; Win64; x64; rv:107.0) Gecko/20100101 Firefox/107.0","","Firefox","107.0","Windows","10.0","","","","",""
"21197","
        <p style=""font-size:20px;""> You are about to begin the practice test. </p>
        <p style=""font-size:20px;""> On each trial, you will see a sentence in English and its corresponding Spanish translation. </p>
        <p style=""font-size:20px;""> You will rate the accuracy of the translation on a scale from ""Not at all accurate"" to ""Very accurate."" </p>
        <p style=""font-size:20px;""> If you rate the translation as ""Somewhat innaccurate"" or ""Not at all accurate,"" you will be asked to provide your own translation or a reason why the translation is inaccurate. </p>
        <p style=""font-size:20px;""> Click the button below to continue to the practice session.</p>","0","instructions","14298","html-button-response","2","75457","0.0-2.0","20","1","2022-11-29 21:24:49","2df368f4e41f066fd1c82c297b4a1108","190.162.241.154","Mozilla/5.0 (Windows NT 10.0; Win64; x64; rv:107.0) Gecko/20100101 Firefox/107.0","","Firefox","107.0","Windows","10.0","","","","",""
"32092","You see how an artist is running <br> T&uacute ves como un artista est&aacute corriendo","{""Q0"":4}","practice","14298","survey-likert","3","107554","0.0-3.0-0.0","20","1","2022-11-29 21:24:49","2df368f4e41f066fd1c82c297b4a1108","190.162.241.154","Mozilla/5.0 (Windows NT 10.0; Win64; x64; rv:107.0) Gecko/20100101 Firefox/107.0","","Firefox","107.0","Windows","10.0","[0]","4","","",""
"23453","You see how a teacher is drawing a picture <br> T&uacute ves como un maestro pinta una foto","{""Q0"":1}","practice","14298","survey-likert","4","131015","0.0-3.0-0.1","20","1","2022-11-29 21:24:49","2df368f4e41f066fd1c82c297b4a1108","190.162.241.154","Mozilla/5.0 (Windows NT 10.0; Win64; x64; rv:107.0) Gecko/20100101 Firefox/107.0","","Firefox","107.0","Windows","10.0","[0]","1","","",""
"36954","You see how a teacher is drawing a picture <br> T&uacute ves como un maestro pinta una foto","{""Q0"":""Tú ves cómo un artista está dibujando""}","practice_low_rate","14298","survey-text","5","167975","0.0-3.0-1.1-0.1","20","1","2022-11-29 21:24:49","2df368f4e41f066fd1c82c297b4a1108","190.162.241.154","Mozilla/5.0 (Windows NT 10.0; Win64; x64; rv:107.0) Gecko/20100101 Firefox/107.0","","Firefox","107.0","Windows","10.0","","","4","",""
"12226","You see how a duck is playing with a pumpkin <br> T&uacute ves como un pato est&aacute jugando con una calabaza","{""Q0"":4}","practice","14298","survey-likert","6","180209","0.0-3.0-0.2","20","1","2022-11-29 21:24:49","2df368f4e41f066fd1c82c297b4a1108","190.162.241.154","Mozilla/5.0 (Windows NT 10.0; Win64; x64; rv:107.0) Gecko/20100101 Firefox/107.0","","Firefox","107.0","Windows","10.0","[0]","4","","",""
"16208","You see how a tiger is playing with a goose <br> T&uacute ves como un le&oacuten come una pizza","{""Q0"":0}","practice","14298","survey-likert","7","196421","0.0-3.0-0.3","20","1","2022-11-29 21:24:49","2df368f4e41f066fd1c82c297b4a1108","190.162.241.154","Mozilla/5.0 (Windows NT 10.0; Win64; x64; rv:107.0) Gecko/20100101 Firefox/107.0","","Firefox","107.0","Windows","10.0","[0]","0","","",""
"10804","You see how a tiger is playing with a goose <br> T&uacute ves como un le&oacuten come una pizza","{""Q0"":""Tú ves cómo un tigre está jugando con un ganso""}","practice_low_rate","14298","survey-text","8","207231","0.0-3.0-1.3-0.3","20","1","2022-11-29 21:24:49","2df368f4e41f066fd1c82c297b4a1108","190.162.241.154","Mozilla/5.0 (Windows NT 10.0; Win64; x64; rv:107.0) Gecko/20100101 Firefox/107.0","","Firefox","107.0","Windows","10.0","","","5","",""
"14034","You drop a bowling ball on a mircrowave <br> T&uacute tiras una bola de boliche a un horno","{""Q0"":3}","practice","14298","survey-likert","9","221275","0.0-3.0-0.4","20","1","2022-11-29 21:24:49","2df368f4e41f066fd1c82c297b4a1108","190.162.241.154","Mozilla/5.0 (Windows NT 10.0; Win64; x64; rv:107.0) Gecko/20100101 Firefox/107.0","","Firefox","107.0","Windows","10.0","[0]","3","","",""
"17208","You drop a rock on a phone <br> T&uacute tiras una piedra a un tel&eacutefono","{""Q0"":4}","practice","14298","survey-likert","10","238491","0.0-3.0-0.5","20","1","2022-11-29 21:24:49","2df368f4e41f066fd1c82c297b4a1108","190.162.241.154","Mozilla/5.0 (Windows NT 10.0; Win64; x64; rv:107.0) Gecko/20100101 Firefox/107.0","","Firefox","107.0","Windows","10.0","[0]","4","","",""
"2853","<p style=""font-size:20px;"">You have now completed the practice session! </p>
        <p style=""font-size:20px;"">You will now move on to the main experiment. </p>
        <p style=""font-size:20px;"">Please click the button below to continue. </p>","0","movetoexp","14298","html-button-response","11","241347","0.0-4.0","20","1","2022-11-29 21:24:49","2df368f4e41f066fd1c82c297b4a1108","190.162.241.154","Mozilla/5.0 (Windows NT 10.0; Win64; x64; rv:107.0) Gecko/20100101 Firefox/107.0","","Firefox","107.0","Windows","10.0","","","","",""
"15907","You see how a woman is paying with a debit card <br> T&uacute ves como una mujer est&aacute pagando con una tarjeta de d&eacutebito","{""Q0"":4}","trial","14298","survey-likert","12","257258","0.0-5.0-0.0","20","1","2022-11-29 21:24:49","2df368f4e41f066fd1c82c297b4a1108","190.162.241.154","Mozilla/5.0 (Windows NT 10.0; Win64; x64; rv:107.0) Gecko/20100101 Firefox/107.0","","Firefox","107.0","Windows","10.0","[0]","","64","4",""
"10373","You see how a musician is playing a guitar <br> T&uacute ves como un m&uacutesico est&aacute tocando la guitarra","{""Q0"":4}","trial","14298","survey-likert","13","267637","0.0-5.0-0.1","20","1","2022-11-29 21:24:49","2df368f4e41f066fd1c82c297b4a1108","190.162.241.154","Mozilla/5.0 (Windows NT 10.0; Win64; x64; rv:107.0) Gecko/20100101 Firefox/107.0","","Firefox","107.0","Windows","10.0","[0]","","27","4",""
"16531","You see how a giraffe is playing with a zebra <br> T&uacute ves como una jirafa est&aacute jugando con una cebra","{""Q0"":4}","trial","14298","survey-likert","14","284176","0.0-5.0-0.2","20","1","2022-11-29 21:24:49","2df368f4e41f066fd1c82c297b4a1108","190.162.241.154","Mozilla/5.0 (Windows NT 10.0; Win64; x64; rv:107.0) Gecko/20100101 Firefox/107.0","","Firefox","107.0","Windows","10.0","[0]","","65","4",""
"16958","You see how a mouse is eating cheese <br> T&uacute ves como el rat&oacuten est&aacute comiendo queso","{""Q0"":3}","trial","14298","survey-likert","15","301145","0.0-5.0-0.3","20","1","2022-11-29 21:24:49","2df368f4e41f066fd1c82c297b4a1108","190.162.241.154","Mozilla/5.0 (Windows NT 10.0; Win64; x64; rv:107.0) Gecko/20100101 Firefox/107.0","","Firefox","107.0","Windows","10.0","[0]","","56","3",""
"19411","You see how a doctor is taking a stethoscope <br> T&uacute ves como un doctor est&aacute agarrando un estetoscopio","{""Q0"":3}","trial","14298","survey-likert","16","320562","0.0-5.0-0.4","20","1","2022-11-29 21:24:49","2df368f4e41f066fd1c82c297b4a1108","190.162.241.154","Mozilla/5.0 (Windows NT 10.0; Win64; x64; rv:107.0) Gecko/20100101 Firefox/107.0","","Firefox","107.0","Windows","10.0","[0]","","49","3",""
"11135","You see how an astronaut is putting on a space suit <br> T&uacute ves como un astronauta se est&aacute poniendo su traje espacial","{""Q0"":4}","trial","14298","survey-likert","17","331701","0.0-5.0-0.5","20","1","2022-11-29 21:24:49","2df368f4e41f066fd1c82c297b4a1108","190.162.241.154","Mozilla/5.0 (Windows NT 10.0; Win64; x64; rv:107.0) Gecko/20100101 Firefox/107.0","","Firefox","107.0","Windows","10.0","[0]","","33","4",""
"10428","You see how a teenage girl is playing the piano <br> T&uacute ves como una ni&ntildea adolescente est&aacute tocando el piano","{""Q0"":4}","trial","14298","survey-likert","18","342139","0.0-5.0-0.6","20","1","2022-11-29 21:24:49","2df368f4e41f066fd1c82c297b4a1108","190.162.241.154","Mozilla/5.0 (Windows NT 10.0; Win64; x64; rv:107.0) Gecko/20100101 Firefox/107.0","","Firefox","107.0","Windows","10.0","[0]","","54","4",""
"13435","You drop a remote on the rug <br> T&uacute tiras un control remoto a la alfombra","{""Q0"":4}","trial","14298","survey-likert","19","355587","0.0-5.0-0.7","20","1","2022-11-29 21:24:49","2df368f4e41f066fd1c82c297b4a1108","190.162.241.154","Mozilla/5.0 (Windows NT 10.0; Win64; x64; rv:107.0) Gecko/20100101 Firefox/107.0","","Firefox","107.0","Windows","10.0","[0]","","39","4",""
"10405","You see how a parrot is eating an apple <br> T&uacute ves como un loro est&aacute comiendo una manzana","{""Q0"":4}","trial","14298","survey-likert","20","366001","0.0-5.0-0.8","20","1","2022-11-29 21:24:49","2df368f4e41f066fd1c82c297b4a1108","190.162.241.154","Mozilla/5.0 (Windows NT 10.0; Win64; x64; rv:107.0) Gecko/20100101 Firefox/107.0","","Firefox","107.0","Windows","10.0","[0]","","58","4",""
"11983","You drop a bowling ball on a hat <br> T&uacute tiras una bola de boliche a una gorra","{""Q0"":4}","trial","14298","survey-likert","21","377987","0.0-5.0-0.9","20","1","2022-11-29 21:24:49","2df368f4e41f066fd1c82c297b4a1108","190.162.241.154","Mozilla/5.0 (Windows NT 10.0; Win64; x64; rv:107.0) Gecko/20100101 Firefox/107.0","","Firefox","107.0","Windows","10.0","[0]","","10","4",""
"12257","You drop a bowling ball on a blackberry <br> T&uacute tiras una bola de boliche a una mora","{""Q0"":4}","trial","14298","survey-likert","22","390247","0.0-5.0-0.10","20","1","2022-11-29 21:24:49","2df368f4e41f066fd1c82c297b4a1108","190.162.241.154","Mozilla/5.0 (Windows NT 10.0; Win64; x64; rv:107.0) Gecko/20100101 Firefox/107.0","","Firefox","107.0","Windows","10.0","[0]","","8","4",""
"14756","You see how a zebra is playing with a horse <br> T&uacute ves como una cebra est&aacute jugando con un caballo","{""Q0"":4}","trial","14298","survey-likert","23","405007","0.0-5.0-0.11","20","1","2022-11-29 21:24:49","2df368f4e41f066fd1c82c297b4a1108","190.162.241.154","Mozilla/5.0 (Windows NT 10.0; Win64; x64; rv:107.0) Gecko/20100101 Firefox/107.0","","Firefox","107.0","Windows","10.0","[0]","","66","4",""
"11393","You see how a boy is peeling a banana <br> T&uacute ves como un ni&ntildeo est&aacute pelando una banana","{""Q0"":4}","trial","14298","survey-likert","24","416408","0.0-5.0-0.12","20","1","2022-11-29 21:24:49","2df368f4e41f066fd1c82c297b4a1108","190.162.241.154","Mozilla/5.0 (Windows NT 10.0; Win64; x64; rv:107.0) Gecko/20100101 Firefox/107.0","","Firefox","107.0","Windows","10.0","[0]","","30","4",""
"19877","You drop a keyboard on the bed <br> T&uacute tiras un teclado a la cama","{""Q0"":4}","trial","14298","survey-likert","25","436291","0.0-5.0-0.13","20","1","2022-11-29 21:24:49","2df368f4e41f066fd1c82c297b4a1108","190.162.241.154","Mozilla/5.0 (Windows NT 10.0; Win64; x64; rv:107.0) Gecko/20100101 Firefox/107.0","","Firefox","107.0","Windows","10.0","[0]","","36","4",""
"29286","You drop a cabbage on the table <br> T&uacute tiras una col a la mesa","{""Q0"":3}","trial","14298","survey-likert","26","465582","0.0-5.0-0.14","20","1","2022-11-29 21:24:49","2df368f4e41f066fd1c82c297b4a1108","190.162.241.154","Mozilla/5.0 (Windows NT 10.0; Win64; x64; rv:107.0) Gecko/20100101 Firefox/107.0","","Firefox","107.0","Windows","10.0","[0]","","35","3",""
"23874","You drop a bowling ball on a piece of sushi <br> T&uacute tiras una bola de boliche a un pedazo de sushi","{""Q0"":1}","trial","14298","survey-likert","27","489469","0.0-5.0-0.15","20","1","2022-11-29 21:24:49","2df368f4e41f066fd1c82c297b4a1108","190.162.241.154","Mozilla/5.0 (Windows NT 10.0; Win64; x64; rv:107.0) Gecko/20100101 Firefox/107.0","","Firefox","107.0","Windows","10.0","[0]","","21","1",""
"10030","You drop a bowling ball on a piece of sushi <br> T&uacute tiras una bola de boliche a un pedazo de sushi","{""Q0"":""Tú tiras una bola de boliche a una pieza de sushi""}","low_rate","14298","survey-text","28","499506","0.0-5.0-1.15-0.15","20","1","2022-11-29 21:24:49","2df368f4e41f066fd1c82c297b4a1108","190.162.241.154","Mozilla/5.0 (Windows NT 10.0; Win64; x64; rv:107.0) Gecko/20100101 Firefox/107.0","","Firefox","107.0","Windows","10.0","","","21","",""
"10805","You drop a bowling ball on a ceramic plate <br> T&uacute tiras una bola de boliche a un plato de cer&aacutemica","{""Q0"":4}","trial","14298","survey-likert","29","510318","0.0-5.0-0.16","20","1","2022-11-29 21:24:49","2df368f4e41f066fd1c82c297b4a1108","190.162.241.154","Mozilla/5.0 (Windows NT 10.0; Win64; x64; rv:107.0) Gecko/20100101 Firefox/107.0","","Firefox","107.0","Windows","10.0","[0]","","19","4",""
"28772","You drop a bowling ball on a tomato <br> T&uacute tiras una bola de boliche a un tomate","{""Q0"":3}","trial","14298","survey-likert","30","539095","0.0-5.0-0.17","20","1","2022-11-29 21:24:49","2df368f4e41f066fd1c82c297b4a1108","190.162.241.154","Mozilla/5.0 (Windows NT 10.0; Win64; x64; rv:107.0) Gecko/20100101 Firefox/107.0","","Firefox","107.0","Windows","10.0","[0]","","23","3",""
"12019","You drop a towel on the TV <br> T&uacute tiras una toalla a la televisi&oacuten","{""Q0"":4}","trial","14298","survey-likert","31","551125","0.0-5.0-0.18","20","1","2022-11-29 21:24:49","2df368f4e41f066fd1c82c297b4a1108","190.162.241.154","Mozilla/5.0 (Windows NT 10.0; Win64; x64; rv:107.0) Gecko/20100101 Firefox/107.0","","Firefox","107.0","Windows","10.0","[0]","","53","4",""
"39803","You see how a cat is drinking water from a bowl <br> T&uacute ves como un gato est&aacute bebiendo agua de un cuenco","{""Q0"":3}","trial","14298","survey-likert","32","590936","0.0-5.0-0.19","20","1","2022-11-29 21:24:49","2df368f4e41f066fd1c82c297b4a1108","190.162.241.154","Mozilla/5.0 (Windows NT 10.0; Win64; x64; rv:107.0) Gecko/20100101 Firefox/107.0","","Firefox","107.0","Windows","10.0","[0]","","28","3",""
"39102","You drop a bowling ball on a rice cake <br> T&uacute tiras una bola de boliche a una tortita de arroz","{""Q0"":3}","trial","14298","survey-likert","33","630055","0.0-5.0-0.20","20","1","2022-11-29 21:24:49","2df368f4e41f066fd1c82c297b4a1108","190.162.241.154","Mozilla/5.0 (Windows NT 10.0; Win64; x64; rv:107.0) Gecko/20100101 Firefox/107.0","","Firefox","107.0","Windows","10.0","[0]","","18","3",""
"16155","You see how a photographer is taking a photo of a lion <br> T&uacute ves como un fot&oacutegrafo est&aacute tomando una foto de un le&oacuten","{""Q0"":4}","trial","14298","survey-likert","34","646218","0.0-5.0-0.21","20","1","2022-11-29 21:24:49","2df368f4e41f066fd1c82c297b4a1108","190.162.241.154","Mozilla/5.0 (Windows NT 10.0; Win64; x64; rv:107.0) Gecko/20100101 Firefox/107.0","","Firefox","107.0","Windows","10.0","[0]","","72","4",""
"22686","You drop a pencil on the shoe <br> T&uacute tiras un l&aacutepiz al zapato","{""Q0"":4}","trial","14298","survey-likert","35","668908","0.0-5.0-0.22","20","1","2022-11-29 21:24:49","2df368f4e41f066fd1c82c297b4a1108","190.162.241.154","Mozilla/5.0 (Windows NT 10.0; Win64; x64; rv:107.0) Gecko/20100101 Firefox/107.0","","Firefox","107.0","Windows","10.0","[0]","","40","4",""
"15845","You drop a watch on the laptop <br> T&uacute tiras un reloj al port&aacutetil","{""Q0"":4}","trial","14298","survey-likert","36","684756","0.0-5.0-0.23","20","1","2022-11-29 21:24:49","2df368f4e41f066fd1c82c297b4a1108","190.162.241.154","Mozilla/5.0 (Windows NT 10.0; Win64; x64; rv:107.0) Gecko/20100101 Firefox/107.0","","Firefox","107.0","Windows","10.0","[0]","","37","4",""
"11502","You drop a bowling ball on glasses <br> T&uacute tiras una bola de boliche a unas gafas","{""Q0"":4}","trial","14298","survey-likert","37","696262","0.0-5.0-0.24","20","1","2022-11-29 21:24:49","2df368f4e41f066fd1c82c297b4a1108","190.162.241.154","Mozilla/5.0 (Windows NT 10.0; Win64; x64; rv:107.0) Gecko/20100101 Firefox/107.0","","Firefox","107.0","Windows","10.0","[0]","","9","4",""
"11773","You drop a bowling ball on a chocolate muffin <br> T&uacute tiras una bola de boliche a una magdalena de chocolate","{""Q0"":4}","trial","14298","survey-likert","38","708037","0.0-5.0-0.25","20","1","2022-11-29 21:24:49","2df368f4e41f066fd1c82c297b4a1108","190.162.241.154","Mozilla/5.0 (Windows NT 10.0; Win64; x64; rv:107.0) Gecko/20100101 Firefox/107.0","","Firefox","107.0","Windows","10.0","[0]","","16","4",""
"7209","You drop a bowling ball on an egg <br> T&uacute tiras una bola de boliche a un huevo","{""Q0"":4}","trial","14298","survey-likert","39","715250","0.0-5.0-0.26","20","1","2022-11-29 21:24:49","2df368f4e41f066fd1c82c297b4a1108","190.162.241.154","Mozilla/5.0 (Windows NT 10.0; Win64; x64; rv:107.0) Gecko/20100101 Firefox/107.0","","Firefox","107.0","Windows","10.0","[0]","","6","4",""
"10941","You see how a postman is driving a car <br> T&uacute ves como un cartero est&aacute conduciendo un coche","{""Q0"":4}","trial","14298","survey-likert","40","726195","0.0-5.0-0.27","20","1","2022-11-29 21:24:49","2df368f4e41f066fd1c82c297b4a1108","190.162.241.154","Mozilla/5.0 (Windows NT 10.0; Win64; x64; rv:107.0) Gecko/20100101 Firefox/107.0","","Firefox","107.0","Windows","10.0","[0]","","32","4",""
"18392","You drop a bowling ball on a paper cup <br> T&uacute tiras una bola de boliche a un vaso de papel","{""Q0"":4}","trial","14298","survey-likert","41","744592","0.0-5.0-0.28","20","1","2022-11-29 21:24:49","2df368f4e41f066fd1c82c297b4a1108","190.162.241.154","Mozilla/5.0 (Windows NT 10.0; Win64; x64; rv:107.0) Gecko/20100101 Firefox/107.0","","Firefox","107.0","Windows","10.0","[0]","","24","4",""
"23792","You drop a needle on the mouse pad <br> T&uacute tiras una aguja a la alfombrilla para el rat&oacuten","{""Q0"":3}","trial","14298","survey-likert","42","768389","0.0-5.0-0.29","20","1","2022-11-29 21:24:49","2df368f4e41f066fd1c82c297b4a1108","190.162.241.154","Mozilla/5.0 (Windows NT 10.0; Win64; x64; rv:107.0) Gecko/20100101 Firefox/107.0","","Firefox","107.0","Windows","10.0","[0]","","42","3",""
"7515","You drop a bowling ball on an iPAD <br> T&uacute tiras una bola de boliche a un iPad","{""Q0"":4}","trial","14298","survey-likert","43","775908","0.0-5.0-0.30","20","1","2022-11-29 21:24:49","2df368f4e41f066fd1c82c297b4a1108","190.162.241.154","Mozilla/5.0 (Windows NT 10.0; Win64; x64; rv:107.0) Gecko/20100101 Firefox/107.0","","Firefox","107.0","Windows","10.0","[0]","","12","4",""
"15624","You see how a butterfly is sitting on a flower <br> T&uacute ves como una mariposa est&aacute reposando en una flor","{""Q0"":3}","trial","14298","survey-likert","44","791535","0.0-5.0-0.31","20","1","2022-11-29 21:24:49","2df368f4e41f066fd1c82c297b4a1108","190.162.241.154","Mozilla/5.0 (Windows NT 10.0; Win64; x64; rv:107.0) Gecko/20100101 Firefox/107.0","","Firefox","107.0","Windows","10.0","[0]","","59","3",""
"11936","You see how a president is writing in the notebook <br> T&uacute ves como un presidente est&aacute escribiendo en la libreta","{""Q0"":4}","trial","14298","survey-likert","45","803476","0.0-5.0-0.32","20","1","2022-11-29 21:24:49","2df368f4e41f066fd1c82c297b4a1108","190.162.241.154","Mozilla/5.0 (Windows NT 10.0; Win64; x64; rv:107.0) Gecko/20100101 Firefox/107.0","","Firefox","107.0","Windows","10.0","[0]","","63","4",""
"26440","You see how a nurse is taking a syringe <br> T&uacute ves como una enfermera est&aacute agarrando una jeringuilla","{""Q0"":3}","trial","14298","survey-likert","46","829919","0.0-5.0-0.33","20","1","2022-11-29 21:24:49","2df368f4e41f066fd1c82c297b4a1108","190.162.241.154","Mozilla/5.0 (Windows NT 10.0; Win64; x64; rv:107.0) Gecko/20100101 Firefox/107.0","","Firefox","107.0","Windows","10.0","[0]","","48","3",""
"10095","You drop a bowling ball on a porcelain figure <br> T&uacute tiras una bola de boliche a una figura de porcelana","{""Q0"":4}","trial","14298","survey-likert","47","840020","0.0-5.0-0.34","20","1","2022-11-29 21:24:49","2df368f4e41f066fd1c82c297b4a1108","190.162.241.154","Mozilla/5.0 (Windows NT 10.0; Win64; x64; rv:107.0) Gecko/20100101 Firefox/107.0","","Firefox","107.0","Windows","10.0","[0]","","1","4",""
"9437","You drop a ring on the newspaper <br> T&uacute tiras un anillo al peri&oacutedico","{""Q0"":4}","trial","14298","survey-likert","48","849472","0.0-5.0-0.35","20","1","2022-11-29 21:24:49","2df368f4e41f066fd1c82c297b4a1108","190.162.241.154","Mozilla/5.0 (Windows NT 10.0; Win64; x64; rv:107.0) Gecko/20100101 Firefox/107.0","","Firefox","107.0","Windows","10.0","[0]","","41","4",""
"28557","You drop a bowling ball on a tile <br> T&uacute tiras una bola de boliche a una baldosa","{""Q0"":4}","trial","14298","survey-likert","49","878034","0.0-5.0-0.36","20","1","2022-11-29 21:24:49","2df368f4e41f066fd1c82c297b4a1108","190.162.241.154","Mozilla/5.0 (Windows NT 10.0; Win64; x64; rv:107.0) Gecko/20100101 Firefox/107.0","","Firefox","107.0","Windows","10.0","[0]","","22","4",""
"34112","You see how a police officer is talking on the phone <br> T&uacute ves como un polic&iacutea est&aacute hablando por el tel&eacutefono","{""Q0"":3}","trial","14298","survey-likert","50","912151","0.0-5.0-0.37","20","1","2022-11-29 21:24:49","2df368f4e41f066fd1c82c297b4a1108","190.162.241.154","Mozilla/5.0 (Windows NT 10.0; Win64; x64; rv:107.0) Gecko/20100101 Firefox/107.0","","Firefox","107.0","Windows","10.0","[0]","","62","3",""
"27125","You drop a bowling ball on an egg flan <br> T&uacute tiras una bola de boliche a un flan","{""Q0"":3}","trial","14298","survey-likert","51","939289","0.0-5.0-0.38","20","1","2022-11-29 21:24:49","2df368f4e41f066fd1c82c297b4a1108","190.162.241.154","Mozilla/5.0 (Windows NT 10.0; Win64; x64; rv:107.0) Gecko/20100101 Firefox/107.0","","Firefox","107.0","Windows","10.0","[0]","","7","3",""
"13345","You drop a toothbrush on the sponge <br> T&uacute tiras un cepillo de dientes en la esponja","{""Q0"":4}","trial","14298","survey-likert","52","952640","0.0-5.0-0.39","20","1","2022-11-29 21:24:49","2df368f4e41f066fd1c82c297b4a1108","190.162.241.154","Mozilla/5.0 (Windows NT 10.0; Win64; x64; rv:107.0) Gecko/20100101 Firefox/107.0","","Firefox","107.0","Windows","10.0","[0]","","25","4",""
"41471","You drop a bowling ball on a light bulb <br> T&uacute tiras una bola de boliche a una bombilla","{""Q0"":3}","trial","14298","survey-likert","53","994116","0.0-5.0-0.40","20","1","2022-11-29 21:24:49","2df368f4e41f066fd1c82c297b4a1108","190.162.241.154","Mozilla/5.0 (Windows NT 10.0; Win64; x64; rv:107.0) Gecko/20100101 Firefox/107.0","","Firefox","107.0","Windows","10.0","[0]","","14","3",""
"16154","You see how a thief is stealing a wallet <br> T&uacute ves como un ladr&oacuten est&aacute robando una billetera","{""Q0"":4}","trial","14298","survey-likert","54","1010284","0.0-5.0-0.41","20","1","2022-11-29 21:24:49","2df368f4e41f066fd1c82c297b4a1108","190.162.241.154","Mozilla/5.0 (Windows NT 10.0; Win64; x64; rv:107.0) Gecko/20100101 Firefox/107.0","","Firefox","107.0","Windows","10.0","[0]","","68","4",""
"9295","You drop a bowling ball on a strawberry <br> T&uacute tiras una bola de boliche a una fresa","{""Q0"":4}","trial","14298","survey-likert","55","1019586","0.0-5.0-0.42","20","1","2022-11-29 21:24:49","2df368f4e41f066fd1c82c297b4a1108","190.162.241.154","Mozilla/5.0 (Windows NT 10.0; Win64; x64; rv:107.0) Gecko/20100101 Firefox/107.0","","Firefox","107.0","Windows","10.0","[0]","","20","4",""
"7246","You see how an elephant is eating a watermelon <br> T&uacute ves como un elefante est&aacute comiendo una sand&iacutea","{""Q0"":4}","trial","14298","survey-likert","56","1026838","0.0-5.0-0.43","20","1","2022-11-29 21:24:49","2df368f4e41f066fd1c82c297b4a1108","190.162.241.154","Mozilla/5.0 (Windows NT 10.0; Win64; x64; rv:107.0) Gecko/20100101 Firefox/107.0","","Firefox","107.0","Windows","10.0","[0]","","31","4",""
"11109","You see how a student is writing on a board <br> T&uacute ves como un estudiante est&aacute escribiendo en la pizarra","{""Q0"":3}","trial","14298","survey-likert","57","1037960","0.0-5.0-0.44","20","1","2022-11-29 21:24:49","2df368f4e41f066fd1c82c297b4a1108","190.162.241.154","Mozilla/5.0 (Windows NT 10.0; Win64; x64; rv:107.0) Gecko/20100101 Firefox/107.0","","Firefox","107.0","Windows","10.0","[0]","","50","3",""
"14622","You drop a bowling ball on a cracker <br> T&uacute tiras una bola de boliche a una galleta","{""Q0"":3}","trial","14298","survey-likert","58","1052591","0.0-5.0-0.45","20","1","2022-11-29 21:24:49","2df368f4e41f066fd1c82c297b4a1108","190.162.241.154","Mozilla/5.0 (Windows NT 10.0; Win64; x64; rv:107.0) Gecko/20100101 Firefox/107.0","","Firefox","107.0","Windows","10.0","[0]","","4","3",""
"15462","You drop a bowling ball on a piece of cake <br> T&uacute tiras una bola de boliche a un trozo de pastel","{""Q0"":3}","trial","14298","survey-likert","59","1068060","0.0-5.0-0.46","20","1","2022-11-29 21:24:49","2df368f4e41f066fd1c82c297b4a1108","190.162.241.154","Mozilla/5.0 (Windows NT 10.0; Win64; x64; rv:107.0) Gecko/20100101 Firefox/107.0","","Firefox","107.0","Windows","10.0","[0]","","2","3",""
"6394","You see how a pilot is reading a book <br> T&uacute ves como un piloto est&aacute leyendo un libro","{""Q0"":4}","trial","14298","survey-likert","60","1074458","0.0-5.0-0.47","20","1","2022-11-29 21:24:49","2df368f4e41f066fd1c82c297b4a1108","190.162.241.154","Mozilla/5.0 (Windows NT 10.0; Win64; x64; rv:107.0) Gecko/20100101 Firefox/107.0","","Firefox","107.0","Windows","10.0","[0]","","61","4",""
"5584","You see how a donkey is drinking water <br> T&uacute ves como un burro est&aacute bebiendo agua","{""Q0"":4}","trial","14298","survey-likert","61","1080047","0.0-5.0-0.48","20","1","2022-11-29 21:24:49","2df368f4e41f066fd1c82c297b4a1108","190.162.241.154","Mozilla/5.0 (Windows NT 10.0; Win64; x64; rv:107.0) Gecko/20100101 Firefox/107.0","","Firefox","107.0","Windows","10.0","[0]","","45","4",""
"10438","You see how a kitten is playing in the sandbox <br> T&uacute ves como un gatito est&aacute jugando en la caja de arena","{""Q0"":4}","trial","14298","survey-likert","62","1090491","0.0-5.0-0.49","20","1","2022-11-29 21:24:49","2df368f4e41f066fd1c82c297b4a1108","190.162.241.154","Mozilla/5.0 (Windows NT 10.0; Win64; x64; rv:107.0) Gecko/20100101 Firefox/107.0","","Firefox","107.0","Windows","10.0","[0]","","52","4",""
"17684","You see how an old man is hammering a nail <br> T&uacute ves como un hombre anciano est&aacute martillando un clavo","{""Q0"":4}","trial","14298","survey-likert","63","1108189","0.0-5.0-0.50","20","1","2022-11-29 21:24:49","2df368f4e41f066fd1c82c297b4a1108","190.162.241.154","Mozilla/5.0 (Windows NT 10.0; Win64; x64; rv:107.0) Gecko/20100101 Firefox/107.0","","Firefox","107.0","Windows","10.0","[0]","","29","4",""
"12423","You see how a panda is resting on a tree <br> T&uacute ves como un panda est&aacute descansando en un &aacuterbol","{""Q0"":4}","trial","14298","survey-likert","64","1120617","0.0-5.0-0.51","20","1","2022-11-29 21:24:49","2df368f4e41f066fd1c82c297b4a1108","190.162.241.154","Mozilla/5.0 (Windows NT 10.0; Win64; x64; rv:107.0) Gecko/20100101 Firefox/107.0","","Firefox","107.0","Windows","10.0","[0]","","57","4",""
"10660","You drop a bowling ball on a chocolate ice-cream <br> T&uacute tiras una bola de boliche a un helado de chocolate","{""Q0"":3}","trial","14298","survey-likert","65","1131281","0.0-5.0-0.52","20","1","2022-11-29 21:24:49","2df368f4e41f066fd1c82c297b4a1108","190.162.241.154","Mozilla/5.0 (Windows NT 10.0; Win64; x64; rv:107.0) Gecko/20100101 Firefox/107.0","","Firefox","107.0","Windows","10.0","[0]","","11","3",""
"9830","You drop a bowling ball on a donut <br> T&uacute tiras una bola de boliche a una rosquilla","{""Q0"":3}","trial","14298","survey-likert","66","1141116","0.0-5.0-0.53","20","1","2022-11-29 21:24:49","2df368f4e41f066fd1c82c297b4a1108","190.162.241.154","Mozilla/5.0 (Windows NT 10.0; Win64; x64; rv:107.0) Gecko/20100101 Firefox/107.0","","Firefox","107.0","Windows","10.0","[0]","","17","3",""
"20007","You see how a dentist is drinking a can of cola <br> T&uacute ves como un dentista est&aacute bebiendo una lata de cola","{""Q0"":3}","trial","14298","survey-likert","67","1161129","0.0-5.0-0.54","20","1","2022-11-29 21:24:49","2df368f4e41f066fd1c82c297b4a1108","190.162.241.154","Mozilla/5.0 (Windows NT 10.0; Win64; x64; rv:107.0) Gecko/20100101 Firefox/107.0","","Firefox","107.0","Windows","10.0","[0]","","47","3",""
"22141","You see how a man is boiling potatoes <br> T&uacute ves a un hombre est&aacute hirviendo papas","{""Q0"":1}","trial","14298","survey-likert","68","1183287","0.0-5.0-0.55","20","1","2022-11-29 21:24:49","2df368f4e41f066fd1c82c297b4a1108","190.162.241.154","Mozilla/5.0 (Windows NT 10.0; Win64; x64; rv:107.0) Gecko/20100101 Firefox/107.0","","Firefox","107.0","Windows","10.0","[0]","","46","1",""
"12029","You see how a man is boiling potatoes <br> T&uacute ves a un hombre est&aacute hirviendo papas","{""Q0"":""Tú ves cómo un hombre está hirviendo papas""}","low_rate","14298","survey-text","69","1195324","0.0-5.0-1.55-0.55","20","1","2022-11-29 21:24:49","2df368f4e41f066fd1c82c297b4a1108","190.162.241.154","Mozilla/5.0 (Windows NT 10.0; Win64; x64; rv:107.0) Gecko/20100101 Firefox/107.0","","Firefox","107.0","Windows","10.0","","","46","",""
"8461","You drop a fork on the plate <br> T&uacute tiras un tenedor al plato","{""Q0"":4}","trial","14298","survey-likert","70","1203791","0.0-5.0-0.56","20","1","2022-11-29 21:24:49","2df368f4e41f066fd1c82c297b4a1108","190.162.241.154","Mozilla/5.0 (Windows NT 10.0; Win64; x64; rv:107.0) Gecko/20100101 Firefox/107.0","","Firefox","107.0","Windows","10.0","[0]","","26","4",""
"9234","You drop a bowling ball on a mirror <br> T&uacute tiras una bola de boliche a un espejo","{""Q0"":4}","trial","14298","survey-likert","71","1213033","0.0-5.0-0.57","20","1","2022-11-29 21:24:49","2df368f4e41f066fd1c82c297b4a1108","190.162.241.154","Mozilla/5.0 (Windows NT 10.0; Win64; x64; rv:107.0) Gecko/20100101 Firefox/107.0","","Firefox","107.0","Windows","10.0","[0]","","15","4",""
"9068","You see how a man is playing with a cat <br> T&uacute ves como un hombre est&aacute jugando con un gato","{""Q0"":4}","trial","14298","survey-likert","72","1222104","0.0-5.0-0.58","20","1","2022-11-29 21:24:49","2df368f4e41f066fd1c82c297b4a1108","190.162.241.154","Mozilla/5.0 (Windows NT 10.0; Win64; x64; rv:107.0) Gecko/20100101 Firefox/107.0","","Firefox","107.0","Windows","10.0","[0]","","67","4",""
"18025","You see how a cook is taking a knife <br> T&uacute ves como un cocinero est&aacute agarrando un cuchillo","{""Q0"":4}","trial","14298","survey-likert","73","1240144","0.0-5.0-0.59","20","1","2022-11-29 21:24:49","2df368f4e41f066fd1c82c297b4a1108","190.162.241.154","Mozilla/5.0 (Windows NT 10.0; Win64; x64; rv:107.0) Gecko/20100101 Firefox/107.0","","Firefox","107.0","Windows","10.0","[0]","","71","4",""
"10133","You see how an actress is taking a microphone <br> T&uacute ves como una actriz est&aacute agarrando el micr&oacutefono","{""Q0"":4}","trial","14298","survey-likert","74","1250283","0.0-5.0-0.60","20","1","2022-11-29 21:24:49","2df368f4e41f066fd1c82c297b4a1108","190.162.241.154","Mozilla/5.0 (Windows NT 10.0; Win64; x64; rv:107.0) Gecko/20100101 Firefox/107.0","","Firefox","107.0","Windows","10.0","[0]","","51","4",""
"10395","You drop a bowling ball on an iPhone <br> T&uacute tiras una bola de boliche a un iPhone","{""Q0"":4}","trial","14298","survey-likert","75","1260684","0.0-5.0-0.61","20","1","2022-11-29 21:24:49","2df368f4e41f066fd1c82c297b4a1108","190.162.241.154","Mozilla/5.0 (Windows NT 10.0; Win64; x64; rv:107.0) Gecko/20100101 Firefox/107.0","","Firefox","107.0","Windows","10.0","[0]","","13","4",""
"28520","You see how a woman is taking money out of a wallet <br> T&uacute ves como una mujer est&aacute sacando dinero de su billetera","{""Q0"":2}","trial","14298","survey-likert","76","1289211","0.0-5.0-0.62","20","1","2022-11-29 21:24:49","2df368f4e41f066fd1c82c297b4a1108","190.162.241.154","Mozilla/5.0 (Windows NT 10.0; Win64; x64; rv:107.0) Gecko/20100101 Firefox/107.0","","Firefox","107.0","Windows","10.0","[0]","","44","2",""
"14195","You drop a thermometer on the box <br> T&uacute tiras un term&oacutemetro a la caja","{""Q0"":3}","trial","14298","survey-likert","77","1303422","0.0-5.0-0.63","20","1","2022-11-29 21:24:49","2df368f4e41f066fd1c82c297b4a1108","190.162.241.154","Mozilla/5.0 (Windows NT 10.0; Win64; x64; rv:107.0) Gecko/20100101 Firefox/107.0","","Firefox","107.0","Windows","10.0","[0]","","70","3",""
"12209","You drop a cushion on the magazine <br> T&uacute tiras un coj&iacuten a la revista","{""Q0"":3}","trial","14298","survey-likert","78","1315639","0.0-5.0-0.64","20","1","2022-11-29 21:24:49","2df368f4e41f066fd1c82c297b4a1108","190.162.241.154","Mozilla/5.0 (Windows NT 10.0; Win64; x64; rv:107.0) Gecko/20100101 Firefox/107.0","","Firefox","107.0","Windows","10.0","[0]","","38","3",""
"10907","You see how a puppy is playing with a ball <br> T&uacute ves como un cachorro est&aacute jugando con una pelota","{""Q0"":4}","trial","14298","survey-likert","79","1326552","0.0-5.0-0.65","20","1","2022-11-29 21:24:49","2df368f4e41f066fd1c82c297b4a1108","190.162.241.154","Mozilla/5.0 (Windows NT 10.0; Win64; x64; rv:107.0) Gecko/20100101 Firefox/107.0","","Firefox","107.0","Windows","10.0","[0]","","34","4",""
"11758","You see how a horse is chewing hay <br> T&uacute ves como un caballo est&aacute masticando el heno","{""Q0"":3}","trial","14298","survey-likert","80","1338317","0.0-5.0-0.66","20","1","2022-11-29 21:24:49","2df368f4e41f066fd1c82c297b4a1108","190.162.241.154","Mozilla/5.0 (Windows NT 10.0; Win64; x64; rv:107.0) Gecko/20100101 Firefox/107.0","","Firefox","107.0","Windows","10.0","[0]","","55","3",""
"14175","You see how a man is shaving his beard <br> T&uacute ves como un hombre se est&aacute afeitando la barba","{""Q0"":4}","trial","14298","survey-likert","81","1352498","0.0-5.0-0.67","20","1","2022-11-29 21:24:49","2df368f4e41f066fd1c82c297b4a1108","190.162.241.154","Mozilla/5.0 (Windows NT 10.0; Win64; x64; rv:107.0) Gecko/20100101 Firefox/107.0","","Firefox","107.0","Windows","10.0","[0]","","43","4",""
"10951","You drop a bowling ball on an empty can of beer <br> T&uacute tiras una bola de boliche a una lata de cerveza vac&iacutea","{""Q0"":4}","trial","14298","survey-likert","82","1363468","0.0-5.0-0.68","20","1","2022-11-29 21:24:49","2df368f4e41f066fd1c82c297b4a1108","190.162.241.154","Mozilla/5.0 (Windows NT 10.0; Win64; x64; rv:107.0) Gecko/20100101 Firefox/107.0","","Firefox","107.0","Windows","10.0","[0]","","3","4",""
"13090","You see how an owl is sitting on the branch <br> T&uacute ves como un b&uacuteho est&aacute reposando en una rama","{""Q0"":3}","trial","14298","survey-likert","83","1376566","0.0-5.0-0.69","20","1","2022-11-29 21:24:49","2df368f4e41f066fd1c82c297b4a1108","190.162.241.154","Mozilla/5.0 (Windows NT 10.0; Win64; x64; rv:107.0) Gecko/20100101 Firefox/107.0","","Firefox","107.0","Windows","10.0","[0]","","69","3",""
"15650","You see how a hairdresser is taking scissors <br> T&uacute ves como una peluquera est&aacute agarrando las tijeras","{""Q0"":4}","trial","14298","survey-likert","84","1392224","0.0-5.0-0.70","20","1","2022-11-29 21:24:49","2df368f4e41f066fd1c82c297b4a1108","190.162.241.154","Mozilla/5.0 (Windows NT 10.0; Win64; x64; rv:107.0) Gecko/20100101 Firefox/107.0","","Firefox","107.0","Windows","10.0","[0]","","60","4",""
"13062","You drop a bowling ball on a wine glass <br> T&uacute tiras una bola de boliche a una copa de vino","{""Q0"":4}","trial","14298","survey-likert","85","1405291","0.0-5.0-0.71","20","1","2022-11-29 21:24:49","2df368f4e41f066fd1c82c297b4a1108","190.162.241.154","Mozilla/5.0 (Windows NT 10.0; Win64; x64; rv:107.0) Gecko/20100101 Firefox/107.0","","Firefox","107.0","Windows","10.0","[0]","","5","4",""
"7404","
    <p style=""font-size:20px;""> You have completed the experiment portion! </p>
    <p style=""font-size:20px;""> Before you are done, we would like you to answer some basic demographic questions. </p>
    <p style=""font-size:20px;""> Note that your answers to these questions will not affect your compensation/credit. </p>
    <p style=""font-size:20px;""> Click the button below to continue.</p>
    ","0","demo","14298","html-button-response","86","1412700","0.0-6.0","20","1","2022-11-29 21:24:49","2df368f4e41f066fd1c82c297b4a1108","190.162.241.154","Mozilla/5.0 (Windows NT 10.0; Win64; x64; rv:107.0) Gecko/20100101 Firefox/107.0","","Firefox","107.0","Windows","10.0","","","","",""
"15710","","{""Age"":""33"",""Gender"":""male"",""Education"":""18""}","demo","14298","survey-text","87","1428429","0.0-7.0-0.0","20","1","2022-11-29 21:24:49","2df368f4e41f066fd1c82c297b4a1108","190.162.241.154","Mozilla/5.0 (Windows NT 10.0; Win64; x64; rv:107.0) Gecko/20100101 Firefox/107.0","","Firefox","107.0","Windows","10.0","","","","",""
"10791","","{""Race"":[""Other""]}","demo","14298","survey-multi-select","88","1439227","0.0-7.0-1.0","20","1","2022-11-29 21:24:49","2df368f4e41f066fd1c82c297b4a1108","190.162.241.154","Mozilla/5.0 (Windows NT 10.0; Win64; x64; rv:107.0) Gecko/20100101 Firefox/107.0","","Firefox","107.0","Windows","10.0","[0]","","","",""
"15688","","{""Latino"":""Yes"",""Alert"":""Evening""}","demo","14298","survey-multi-choice","89","1454920","0.0-7.0-2.0","20","1","2022-11-29 21:24:49","2df368f4e41f066fd1c82c297b4a1108","190.162.241.154","Mozilla/5.0 (Windows NT 10.0; Win64; x64; rv:107.0) Gecko/20100101 Firefox/107.0","","Firefox","107.0","Windows","10.0","[0,1]","","","",""
"5710","","{""Q0"":""""}","demo","14298","survey-text","90","1460637","0.0-7.0-3.0","20","1","2022-11-29 21:24:49","2df368f4e41f066fd1c82c297b4a1108","190.162.241.154","Mozilla/5.0 (Windows NT 10.0; Win64; x64; rv:107.0) Gecko/20100101 Firefox/107.0","","Firefox","107.0","Windows","10.0","","","","",""
"43479","<p>Thank you for participating! </p><strong>Your completion code is: CXEJB7NH. Please copy-paste this code and submit it on Prolific.</strong><p>Click <a href=""https://drive.google.com/file/d/1c70cdHFlc0AaR6RujLWLJwWkv1RbHQJY/view?usp=sharing"" target=""_blank"" rel=""noopener noreferrer"">here</a> to access the debriefing form and know more about our research. <p> Please click the button below to finish the experiment and save your data.</p> <p> IMPORTANT: Please <strong>do not leave this page </strong> without clicking the button below.</p> <p> You may close the tab/window after you click the button below.","0","","","html-button-response","91","1504119","0.0-8.0","20","1","2022-11-29 21:24:49","2df368f4e41f066fd1c82c297b4a1108","190.162.241.154","Mozilla/5.0 (Windows NT 10.0; Win64; x64; rv:107.0) Gecko/20100101 Firefox/107.0","","Firefox","107.0","Windows","10.0","","","","",""
