"rt","stimulus","response","typeoftrial","subject","trial_type","trial_index","time_elapsed","internal_node_id","run_id","condition","recorded_at","source_code_version","ip","user_agent","device","browser","browser_version","platform","platform_version","question_order","practice_rating","sentence_num","rating","Experiment"
"2457","
        <p style=""font-size:20px;""> Welcome! Thank you for your interest in our study. </p>
        <p style=""font-size:20px;""> This study is being conducted by researchers at Bowdoin College.</p>
        <p style=""font-size:20px;""> In this experiment, you will be asked to rate the accuracy of English and Spanish translations.</p>
        <p style=""font-size:20px;""> The entire experiment should not last more than 20 minutes. You will be paid $3 USD for your participation. </p>
        <p style=""font-size:20px;""> Please click <a href = ""https://drive.google.com/file/d/1L92a02eEKCpaAEipmqDcBCDR7rsarqFE/view?usp=sharing"" target = ""_blank"">here</a> to read the full consent form. </p>
        <p style=""font-size:20px;""> If you agree to participate, please click the button below to continue to experiment instructions.</p>
        ","0","consent","19080","html-button-response","0","2458","0.0-0.0","57","1","2022-11-29 21:29:18","2df368f4e41f066fd1c82c297b4a1108","77.229.212.211","Mozilla/5.0 (Windows NT 10.0; Win64; x64) AppleWebKit/537.36 (KHTML, like Gecko) Chrome/107.0.0.0 Safari/537.36","WebKit","Chrome","107.0.0.0","Windows","10.0","","","","",""
"5229","","{""ID"":""5d60061e45714d00019ad6a4""}","ID","19080","survey-text","1","7692","0.0-1.0","57","1","2022-11-29 21:29:18","2df368f4e41f066fd1c82c297b4a1108","77.229.212.211","Mozilla/5.0 (Windows NT 10.0; Win64; x64) AppleWebKit/537.36 (KHTML, like Gecko) Chrome/107.0.0.0 Safari/537.36","WebKit","Chrome","107.0.0.0","Windows","10.0","","","","",""
"1421","
        <p style=""font-size:20px;""> You are about to begin the practice test. </p>
        <p style=""font-size:20px;""> On each trial, you will see a sentence in English and its corresponding Spanish translation. </p>
        <p style=""font-size:20px;""> You will rate the accuracy of the translation on a scale from ""Not at all accurate"" to ""Very accurate."" </p>
        <p style=""font-size:20px;""> If you rate the translation as ""Somewhat innaccurate"" or ""Not at all accurate,"" you will be asked to provide your own translation or a reason why the translation is inaccurate. </p>
        <p style=""font-size:20px;""> Click the button below to continue to the practice session.</p>","0","instructions","19080","html-button-response","2","9116","0.0-2.0","57","1","2022-11-29 21:29:18","2df368f4e41f066fd1c82c297b4a1108","77.229.212.211","Mozilla/5.0 (Windows NT 10.0; Win64; x64) AppleWebKit/537.36 (KHTML, like Gecko) Chrome/107.0.0.0 Safari/537.36","WebKit","Chrome","107.0.0.0","Windows","10.0","","","","",""
"3385","You see how a teacher is drawing a picture <br> T&uacute ves como un maestro pinta una foto","{""Q0"":4}","practice","19080","survey-likert","3","12505","0.0-3.0-0.0","57","1","2022-11-29 21:29:18","2df368f4e41f066fd1c82c297b4a1108","77.229.212.211","Mozilla/5.0 (Windows NT 10.0; Win64; x64) AppleWebKit/537.36 (KHTML, like Gecko) Chrome/107.0.0.0 Safari/537.36","WebKit","Chrome","107.0.0.0","Windows","10.0","[0]","4","","",""
"5193","You drop a rock on a phone <br> T&uacute tiras una piedra a un tel&eacutefono","{""Q0"":1}","practice","19080","survey-likert","4","17703","0.0-3.0-0.1","57","1","2022-11-29 21:29:18","2df368f4e41f066fd1c82c297b4a1108","77.229.212.211","Mozilla/5.0 (Windows NT 10.0; Win64; x64) AppleWebKit/537.36 (KHTML, like Gecko) Chrome/107.0.0.0 Safari/537.36","WebKit","Chrome","107.0.0.0","Windows","10.0","[0]","1","","",""
"6201","You drop a rock on a phone <br> T&uacute tiras una piedra a un tel&eacutefono","{""Q0"":""Tú tiras una piedra sobre un teléfono""}","practice_low_rate","19080","survey-text","5","23910","0.0-3.0-1.1-0.1","57","1","2022-11-29 21:29:18","2df368f4e41f066fd1c82c297b4a1108","77.229.212.211","Mozilla/5.0 (Windows NT 10.0; Win64; x64) AppleWebKit/537.36 (KHTML, like Gecko) Chrome/107.0.0.0 Safari/537.36","WebKit","Chrome","107.0.0.0","Windows","10.0","","","1","",""
"5862","You see how a tiger is playing with a goose <br> T&uacute ves como un le&oacuten come una pizza","{""Q0"":0}","practice","19080","survey-likert","6","29773","0.0-3.0-0.2","57","1","2022-11-29 21:29:18","2df368f4e41f066fd1c82c297b4a1108","77.229.212.211","Mozilla/5.0 (Windows NT 10.0; Win64; x64) AppleWebKit/537.36 (KHTML, like Gecko) Chrome/107.0.0.0 Safari/537.36","WebKit","Chrome","107.0.0.0","Windows","10.0","[0]","0","","",""
"7287","You see how a tiger is playing with a goose <br> T&uacute ves como un le&oacuten come una pizza","{""Q0"":""Tú ves como un tigre juega con un ganso""}","practice_low_rate","19080","survey-text","7","37067","0.0-3.0-1.2-0.2","57","1","2022-11-29 21:29:18","2df368f4e41f066fd1c82c297b4a1108","77.229.212.211","Mozilla/5.0 (Windows NT 10.0; Win64; x64) AppleWebKit/537.36 (KHTML, like Gecko) Chrome/107.0.0.0 Safari/537.36","WebKit","Chrome","107.0.0.0","Windows","10.0","","","5","",""
"2871","You see how an artist is running <br> T&uacute ves como un artista est&aacute corriendo","{""Q0"":4}","practice","19080","survey-likert","8","39939","0.0-3.0-0.3","57","1","2022-11-29 21:29:18","2df368f4e41f066fd1c82c297b4a1108","77.229.212.211","Mozilla/5.0 (Windows NT 10.0; Win64; x64) AppleWebKit/537.36 (KHTML, like Gecko) Chrome/107.0.0.0 Safari/537.36","WebKit","Chrome","107.0.0.0","Windows","10.0","[0]","4","","",""
"4244","You drop a bowling ball on a mircrowave <br> T&uacute tiras una bola de boliche a un horno","{""Q0"":1}","practice","19080","survey-likert","9","44187","0.0-3.0-0.4","57","1","2022-11-29 21:29:18","2df368f4e41f066fd1c82c297b4a1108","77.229.212.211","Mozilla/5.0 (Windows NT 10.0; Win64; x64) AppleWebKit/537.36 (KHTML, like Gecko) Chrome/107.0.0.0 Safari/537.36","WebKit","Chrome","107.0.0.0","Windows","10.0","[0]","1","","",""
"7073","You drop a bowling ball on a mircrowave <br> T&uacute tiras una bola de boliche a un horno","{""Q0"":""Tú tiras una bola de bolos sobre un horno""}","practice_low_rate","19080","survey-text","10","51266","0.0-3.0-1.4-0.4","57","1","2022-11-29 21:29:18","2df368f4e41f066fd1c82c297b4a1108","77.229.212.211","Mozilla/5.0 (Windows NT 10.0; Win64; x64) AppleWebKit/537.36 (KHTML, like Gecko) Chrome/107.0.0.0 Safari/537.36","WebKit","Chrome","107.0.0.0","Windows","10.0","","","6","",""
"2045","You see how a duck is playing with a pumpkin <br> T&uacute ves como un pato est&aacute jugando con una calabaza","{""Q0"":4}","practice","19080","survey-likert","11","53312","0.0-3.0-0.5","57","1","2022-11-29 21:29:18","2df368f4e41f066fd1c82c297b4a1108","77.229.212.211","Mozilla/5.0 (Windows NT 10.0; Win64; x64) AppleWebKit/537.36 (KHTML, like Gecko) Chrome/107.0.0.0 Safari/537.36","WebKit","Chrome","107.0.0.0","Windows","10.0","[0]","4","","",""
"1315","<p style=""font-size:20px;"">You have now completed the practice session! </p>
        <p style=""font-size:20px;"">You will now move on to the main experiment. </p>
        <p style=""font-size:20px;"">Please click the button below to continue. </p>","0","movetoexp","19080","html-button-response","12","54631","0.0-4.0","57","1","2022-11-29 21:29:18","2df368f4e41f066fd1c82c297b4a1108","77.229.212.211","Mozilla/5.0 (Windows NT 10.0; Win64; x64) AppleWebKit/537.36 (KHTML, like Gecko) Chrome/107.0.0.0 Safari/537.36","WebKit","Chrome","107.0.0.0","Windows","10.0","","","","",""
"2718","You see how a parrot is eating an apple <br> T&uacute ves como un loro est&aacute comiendo una manzana","{""Q0"":4}","trial","19080","survey-likert","13","57352","0.0-5.0-0.0","57","1","2022-11-29 21:29:18","2df368f4e41f066fd1c82c297b4a1108","77.229.212.211","Mozilla/5.0 (Windows NT 10.0; Win64; x64) AppleWebKit/537.36 (KHTML, like Gecko) Chrome/107.0.0.0 Safari/537.36","WebKit","Chrome","107.0.0.0","Windows","10.0","[0]","","58","4",""
"3493","You drop a fork on the plate <br> T&uacute tiras un tenedor al plato","{""Q0"":1}","trial","19080","survey-likert","14","60850","0.0-5.0-0.1","57","1","2022-11-29 21:29:18","2df368f4e41f066fd1c82c297b4a1108","77.229.212.211","Mozilla/5.0 (Windows NT 10.0; Win64; x64) AppleWebKit/537.36 (KHTML, like Gecko) Chrome/107.0.0.0 Safari/537.36","WebKit","Chrome","107.0.0.0","Windows","10.0","[0]","","26","1",""
"4949","You drop a fork on the plate <br> T&uacute tiras un tenedor al plato","{""Q0"":""Tú tiras un tenedor sobre el plato""}","low_rate","19080","survey-text","15","65804","0.0-5.0-1.1-0.1","57","1","2022-11-29 21:29:18","2df368f4e41f066fd1c82c297b4a1108","77.229.212.211","Mozilla/5.0 (Windows NT 10.0; Win64; x64) AppleWebKit/537.36 (KHTML, like Gecko) Chrome/107.0.0.0 Safari/537.36","WebKit","Chrome","107.0.0.0","Windows","10.0","","","26","",""
"8895","You drop a cushion on the magazine <br> T&uacute tiras un coj&iacuten a la revista","{""Q0"":1}","trial","19080","survey-likert","16","74701","0.0-5.0-0.2","57","1","2022-11-29 21:29:18","2df368f4e41f066fd1c82c297b4a1108","77.229.212.211","Mozilla/5.0 (Windows NT 10.0; Win64; x64) AppleWebKit/537.36 (KHTML, like Gecko) Chrome/107.0.0.0 Safari/537.36","WebKit","Chrome","107.0.0.0","Windows","10.0","[0]","","38","1",""
"7639","You drop a cushion on the magazine <br> T&uacute tiras un coj&iacuten a la revista","{""Q0"":""Tú tiras un cojín sobre la revista""}","low_rate","19080","survey-text","17","82346","0.0-5.0-1.2-0.2","57","1","2022-11-29 21:29:18","2df368f4e41f066fd1c82c297b4a1108","77.229.212.211","Mozilla/5.0 (Windows NT 10.0; Win64; x64) AppleWebKit/537.36 (KHTML, like Gecko) Chrome/107.0.0.0 Safari/537.36","WebKit","Chrome","107.0.0.0","Windows","10.0","","","38","",""
"2983","You see how a donkey is drinking water <br> T&uacute ves como un burro est&aacute bebiendo agua","{""Q0"":4}","trial","19080","survey-likert","18","85331","0.0-5.0-0.3","57","1","2022-11-29 21:29:18","2df368f4e41f066fd1c82c297b4a1108","77.229.212.211","Mozilla/5.0 (Windows NT 10.0; Win64; x64) AppleWebKit/537.36 (KHTML, like Gecko) Chrome/107.0.0.0 Safari/537.36","WebKit","Chrome","107.0.0.0","Windows","10.0","[0]","","45","4",""
"2881","You see how a nurse is taking a syringe <br> T&uacute ves como una enfermera est&aacute agarrando una jeringuilla","{""Q0"":4}","trial","19080","survey-likert","19","88215","0.0-5.0-0.4","57","1","2022-11-29 21:29:18","2df368f4e41f066fd1c82c297b4a1108","77.229.212.211","Mozilla/5.0 (Windows NT 10.0; Win64; x64) AppleWebKit/537.36 (KHTML, like Gecko) Chrome/107.0.0.0 Safari/537.36","WebKit","Chrome","107.0.0.0","Windows","10.0","[0]","","48","4",""
"6160","You see how a student is writing on a board <br> T&uacute ves como un estudiante est&aacute escribiendo en la pizarra","{""Q0"":4}","trial","19080","survey-likert","20","94379","0.0-5.0-0.5","57","1","2022-11-29 21:29:18","2df368f4e41f066fd1c82c297b4a1108","77.229.212.211","Mozilla/5.0 (Windows NT 10.0; Win64; x64) AppleWebKit/537.36 (KHTML, like Gecko) Chrome/107.0.0.0 Safari/537.36","WebKit","Chrome","107.0.0.0","Windows","10.0","[0]","","50","4",""
"9353","You drop a needle on the mouse pad <br> T&uacute tiras una aguja a la alfombrilla para el rat&oacuten","{""Q0"":1}","trial","19080","survey-likert","21","103727","0.0-5.0-0.6","57","1","2022-11-29 21:29:18","2df368f4e41f066fd1c82c297b4a1108","77.229.212.211","Mozilla/5.0 (Windows NT 10.0; Win64; x64) AppleWebKit/537.36 (KHTML, like Gecko) Chrome/107.0.0.0 Safari/537.36","WebKit","Chrome","107.0.0.0","Windows","10.0","[0]","","42","1",""
"10096","You drop a needle on the mouse pad <br> T&uacute tiras una aguja a la alfombrilla para el rat&oacuten","{""Q0"":""Tú tiras una jeringuilla sobre la alfombra del ratón.""}","low_rate","19080","survey-text","22","113828","0.0-5.0-1.6-0.6","57","1","2022-11-29 21:29:18","2df368f4e41f066fd1c82c297b4a1108","77.229.212.211","Mozilla/5.0 (Windows NT 10.0; Win64; x64) AppleWebKit/537.36 (KHTML, like Gecko) Chrome/107.0.0.0 Safari/537.36","WebKit","Chrome","107.0.0.0","Windows","10.0","","","42","",""
"5779","You drop a bowling ball on a chocolate muffin <br> T&uacute tiras una bola de boliche a una magdalena de chocolate","{""Q0"":1}","trial","19080","survey-likert","23","119609","0.0-5.0-0.7","57","1","2022-11-29 21:29:18","2df368f4e41f066fd1c82c297b4a1108","77.229.212.211","Mozilla/5.0 (Windows NT 10.0; Win64; x64) AppleWebKit/537.36 (KHTML, like Gecko) Chrome/107.0.0.0 Safari/537.36","WebKit","Chrome","107.0.0.0","Windows","10.0","[0]","","16","1",""
"9121","You drop a bowling ball on a chocolate muffin <br> T&uacute tiras una bola de boliche a una magdalena de chocolate","{""Q0"":""Tú tiras una bola de bolos sobre una magdalena de chocolate.""}","low_rate","19080","survey-text","24","128736","0.0-5.0-1.7-0.7","57","1","2022-11-29 21:29:18","2df368f4e41f066fd1c82c297b4a1108","77.229.212.211","Mozilla/5.0 (Windows NT 10.0; Win64; x64) AppleWebKit/537.36 (KHTML, like Gecko) Chrome/107.0.0.0 Safari/537.36","WebKit","Chrome","107.0.0.0","Windows","10.0","","","16","",""
"3708","You see how a dentist is drinking a can of cola <br> T&uacute ves como un dentista est&aacute bebiendo una lata de cola","{""Q0"":4}","trial","19080","survey-likert","25","132445","0.0-5.0-0.8","57","1","2022-11-29 21:29:18","2df368f4e41f066fd1c82c297b4a1108","77.229.212.211","Mozilla/5.0 (Windows NT 10.0; Win64; x64) AppleWebKit/537.36 (KHTML, like Gecko) Chrome/107.0.0.0 Safari/537.36","WebKit","Chrome","107.0.0.0","Windows","10.0","[0]","","47","4",""
"4549","You drop a bowling ball on a ceramic plate <br> T&uacute tiras una bola de boliche a un plato de cer&aacutemica","{""Q0"":1}","trial","19080","survey-likert","26","136998","0.0-5.0-0.9","57","1","2022-11-29 21:29:18","2df368f4e41f066fd1c82c297b4a1108","77.229.212.211","Mozilla/5.0 (Windows NT 10.0; Win64; x64) AppleWebKit/537.36 (KHTML, like Gecko) Chrome/107.0.0.0 Safari/537.36","WebKit","Chrome","107.0.0.0","Windows","10.0","[0]","","19","1",""
"8952","You drop a bowling ball on a ceramic plate <br> T&uacute tiras una bola de boliche a un plato de cer&aacutemica","{""Q0"":""Tú tiras una bola de bolos sobre un plato de cerámica""}","low_rate","19080","survey-text","27","145956","0.0-5.0-1.9-0.9","57","1","2022-11-29 21:29:18","2df368f4e41f066fd1c82c297b4a1108","77.229.212.211","Mozilla/5.0 (Windows NT 10.0; Win64; x64) AppleWebKit/537.36 (KHTML, like Gecko) Chrome/107.0.0.0 Safari/537.36","WebKit","Chrome","107.0.0.0","Windows","10.0","","","19","",""
"6439","You drop a bowling ball on an egg flan <br> T&uacute tiras una bola de boliche a un flan","{""Q0"":2}","trial","19080","survey-likert","28","152397","0.0-5.0-0.10","57","1","2022-11-29 21:29:18","2df368f4e41f066fd1c82c297b4a1108","77.229.212.211","Mozilla/5.0 (Windows NT 10.0; Win64; x64) AppleWebKit/537.36 (KHTML, like Gecko) Chrome/107.0.0.0 Safari/537.36","WebKit","Chrome","107.0.0.0","Windows","10.0","[0]","","7","2",""
"4935","You drop a thermometer on the box <br> T&uacute tiras un term&oacutemetro a la caja","{""Q0"":3}","trial","19080","survey-likert","29","157345","0.0-5.0-0.11","57","1","2022-11-29 21:29:18","2df368f4e41f066fd1c82c297b4a1108","77.229.212.211","Mozilla/5.0 (Windows NT 10.0; Win64; x64) AppleWebKit/537.36 (KHTML, like Gecko) Chrome/107.0.0.0 Safari/537.36","WebKit","Chrome","107.0.0.0","Windows","10.0","[0]","","70","3",""
"2951","You see how a puppy is playing with a ball <br> T&uacute ves como un cachorro est&aacute jugando con una pelota","{""Q0"":4}","trial","19080","survey-likert","30","160299","0.0-5.0-0.12","57","1","2022-11-29 21:29:18","2df368f4e41f066fd1c82c297b4a1108","77.229.212.211","Mozilla/5.0 (Windows NT 10.0; Win64; x64) AppleWebKit/537.36 (KHTML, like Gecko) Chrome/107.0.0.0 Safari/537.36","WebKit","Chrome","107.0.0.0","Windows","10.0","[0]","","34","4",""
"5526","You drop a bowling ball on a blackberry <br> T&uacute tiras una bola de boliche a una mora","{""Q0"":1}","trial","19080","survey-likert","31","165829","0.0-5.0-0.13","57","1","2022-11-29 21:29:18","2df368f4e41f066fd1c82c297b4a1108","77.229.212.211","Mozilla/5.0 (Windows NT 10.0; Win64; x64) AppleWebKit/537.36 (KHTML, like Gecko) Chrome/107.0.0.0 Safari/537.36","WebKit","Chrome","107.0.0.0","Windows","10.0","[0]","","8","1",""
"7907","You drop a bowling ball on a blackberry <br> T&uacute tiras una bola de boliche a una mora","{""Q0"":""Tú tiras una bola de bolos sobre una mora""}","low_rate","19080","survey-text","32","173744","0.0-5.0-1.13-0.13","57","1","2022-11-29 21:29:18","2df368f4e41f066fd1c82c297b4a1108","77.229.212.211","Mozilla/5.0 (Windows NT 10.0; Win64; x64) AppleWebKit/537.36 (KHTML, like Gecko) Chrome/107.0.0.0 Safari/537.36","WebKit","Chrome","107.0.0.0","Windows","10.0","","","8","",""
"4301","You drop a bowling ball on a rice cake <br> T&uacute tiras una bola de boliche a una tortita de arroz","{""Q0"":1}","trial","19080","survey-likert","33","178047","0.0-5.0-0.14","57","1","2022-11-29 21:29:18","2df368f4e41f066fd1c82c297b4a1108","77.229.212.211","Mozilla/5.0 (Windows NT 10.0; Win64; x64) AppleWebKit/537.36 (KHTML, like Gecko) Chrome/107.0.0.0 Safari/537.36","WebKit","Chrome","107.0.0.0","Windows","10.0","[0]","","18","1",""
"8736","You drop a bowling ball on a rice cake <br> T&uacute tiras una bola de boliche a una tortita de arroz","{""Q0"":""Tú tiras una bola de bolos sobre una torta de arroz.""}","low_rate","19080","survey-text","34","186788","0.0-5.0-1.14-0.14","57","1","2022-11-29 21:29:18","2df368f4e41f066fd1c82c297b4a1108","77.229.212.211","Mozilla/5.0 (Windows NT 10.0; Win64; x64) AppleWebKit/537.36 (KHTML, like Gecko) Chrome/107.0.0.0 Safari/537.36","WebKit","Chrome","107.0.0.0","Windows","10.0","","","18","",""
"9363","You drop a bowling ball on a mirror <br> T&uacute tiras una bola de boliche a un espejo","{""Q0"":1}","trial","19080","survey-likert","35","196153","0.0-5.0-0.15","57","1","2022-11-29 21:29:18","2df368f4e41f066fd1c82c297b4a1108","77.229.212.211","Mozilla/5.0 (Windows NT 10.0; Win64; x64) AppleWebKit/537.36 (KHTML, like Gecko) Chrome/107.0.0.0 Safari/537.36","WebKit","Chrome","107.0.0.0","Windows","10.0","[0]","","15","1",""
"7416","You drop a bowling ball on a mirror <br> T&uacute tiras una bola de boliche a un espejo","{""Q0"":""Tú tiras una bola de bolos sobre un espejo""}","low_rate","19080","survey-text","36","203575","0.0-5.0-1.15-0.15","57","1","2022-11-29 21:29:18","2df368f4e41f066fd1c82c297b4a1108","77.229.212.211","Mozilla/5.0 (Windows NT 10.0; Win64; x64) AppleWebKit/537.36 (KHTML, like Gecko) Chrome/107.0.0.0 Safari/537.36","WebKit","Chrome","107.0.0.0","Windows","10.0","","","15","",""
"3089","You drop a bowling ball on an egg <br> T&uacute tiras una bola de boliche a un huevo","{""Q0"":1}","trial","19080","survey-likert","37","206665","0.0-5.0-0.16","57","1","2022-11-29 21:29:18","2df368f4e41f066fd1c82c297b4a1108","77.229.212.211","Mozilla/5.0 (Windows NT 10.0; Win64; x64) AppleWebKit/537.36 (KHTML, like Gecko) Chrome/107.0.0.0 Safari/537.36","WebKit","Chrome","107.0.0.0","Windows","10.0","[0]","","6","1",""
"6877","You drop a bowling ball on an egg <br> T&uacute tiras una bola de boliche a un huevo","{""Q0"":""Tú tiras una bola de bolos sobre un huevo""}","low_rate","19080","survey-text","38","213546","0.0-5.0-1.16-0.16","57","1","2022-11-29 21:29:18","2df368f4e41f066fd1c82c297b4a1108","77.229.212.211","Mozilla/5.0 (Windows NT 10.0; Win64; x64) AppleWebKit/537.36 (KHTML, like Gecko) Chrome/107.0.0.0 Safari/537.36","WebKit","Chrome","107.0.0.0","Windows","10.0","","","6","",""
"2716","You drop a bowling ball on a donut <br> T&uacute tiras una bola de boliche a una rosquilla","{""Q0"":2}","trial","19080","survey-likert","39","216264","0.0-5.0-0.17","57","1","2022-11-29 21:29:18","2df368f4e41f066fd1c82c297b4a1108","77.229.212.211","Mozilla/5.0 (Windows NT 10.0; Win64; x64) AppleWebKit/537.36 (KHTML, like Gecko) Chrome/107.0.0.0 Safari/537.36","WebKit","Chrome","107.0.0.0","Windows","10.0","[0]","","17","2",""
"1649","You drop a keyboard on the bed <br> T&uacute tiras un teclado a la cama","{""Q0"":2}","trial","19080","survey-likert","40","217917","0.0-5.0-0.18","57","1","2022-11-29 21:29:18","2df368f4e41f066fd1c82c297b4a1108","77.229.212.211","Mozilla/5.0 (Windows NT 10.0; Win64; x64) AppleWebKit/537.36 (KHTML, like Gecko) Chrome/107.0.0.0 Safari/537.36","WebKit","Chrome","107.0.0.0","Windows","10.0","[0]","","36","2",""
"3925","You see how a pilot is reading a book <br> T&uacute ves como un piloto est&aacute leyendo un libro","{""Q0"":4}","trial","19080","survey-likert","41","221845","0.0-5.0-0.19","57","1","2022-11-29 21:29:18","2df368f4e41f066fd1c82c297b4a1108","77.229.212.211","Mozilla/5.0 (Windows NT 10.0; Win64; x64) AppleWebKit/537.36 (KHTML, like Gecko) Chrome/107.0.0.0 Safari/537.36","WebKit","Chrome","107.0.0.0","Windows","10.0","[0]","","61","4",""
"2566","You see how a giraffe is playing with a zebra <br> T&uacute ves como una jirafa est&aacute jugando con una cebra","{""Q0"":4}","trial","19080","survey-likert","42","224415","0.0-5.0-0.20","57","1","2022-11-29 21:29:18","2df368f4e41f066fd1c82c297b4a1108","77.229.212.211","Mozilla/5.0 (Windows NT 10.0; Win64; x64) AppleWebKit/537.36 (KHTML, like Gecko) Chrome/107.0.0.0 Safari/537.36","WebKit","Chrome","107.0.0.0","Windows","10.0","[0]","","65","4",""
"3901","You see how a horse is chewing hay <br> T&uacute ves como un caballo est&aacute masticando el heno","{""Q0"":4}","trial","19080","survey-likert","43","228320","0.0-5.0-0.21","57","1","2022-11-29 21:29:18","2df368f4e41f066fd1c82c297b4a1108","77.229.212.211","Mozilla/5.0 (Windows NT 10.0; Win64; x64) AppleWebKit/537.36 (KHTML, like Gecko) Chrome/107.0.0.0 Safari/537.36","WebKit","Chrome","107.0.0.0","Windows","10.0","[0]","","55","4",""
"3538","You see how a man is boiling potatoes <br> T&uacute ves a un hombre est&aacute hirviendo papas","{""Q0"":4}","trial","19080","survey-likert","44","231862","0.0-5.0-0.22","57","1","2022-11-29 21:29:18","2df368f4e41f066fd1c82c297b4a1108","77.229.212.211","Mozilla/5.0 (Windows NT 10.0; Win64; x64) AppleWebKit/537.36 (KHTML, like Gecko) Chrome/107.0.0.0 Safari/537.36","WebKit","Chrome","107.0.0.0","Windows","10.0","[0]","","46","4",""
"3840","You drop a bowling ball on a piece of cake <br> T&uacute tiras una bola de boliche a un trozo de pastel","{""Q0"":3}","trial","19080","survey-likert","45","235707","0.0-5.0-0.23","57","1","2022-11-29 21:29:18","2df368f4e41f066fd1c82c297b4a1108","77.229.212.211","Mozilla/5.0 (Windows NT 10.0; Win64; x64) AppleWebKit/537.36 (KHTML, like Gecko) Chrome/107.0.0.0 Safari/537.36","WebKit","Chrome","107.0.0.0","Windows","10.0","[0]","","2","3",""
"4003","You see how a woman is taking money out of a wallet <br> T&uacute ves como una mujer est&aacute sacando dinero de su billetera","{""Q0"":4}","trial","19080","survey-likert","46","239714","0.0-5.0-0.24","57","1","2022-11-29 21:29:18","2df368f4e41f066fd1c82c297b4a1108","77.229.212.211","Mozilla/5.0 (Windows NT 10.0; Win64; x64) AppleWebKit/537.36 (KHTML, like Gecko) Chrome/107.0.0.0 Safari/537.36","WebKit","Chrome","107.0.0.0","Windows","10.0","[0]","","44","4",""
"4281","You drop a bowling ball on a light bulb <br> T&uacute tiras una bola de boliche a una bombilla","{""Q0"":3}","trial","19080","survey-likert","47","244000","0.0-5.0-0.25","57","1","2022-11-29 21:29:18","2df368f4e41f066fd1c82c297b4a1108","77.229.212.211","Mozilla/5.0 (Windows NT 10.0; Win64; x64) AppleWebKit/537.36 (KHTML, like Gecko) Chrome/107.0.0.0 Safari/537.36","WebKit","Chrome","107.0.0.0","Windows","10.0","[0]","","14","3",""
"3179","You drop a bowling ball on a paper cup <br> T&uacute tiras una bola de boliche a un vaso de papel","{""Q0"":3}","trial","19080","survey-likert","48","247184","0.0-5.0-0.26","57","1","2022-11-29 21:29:18","2df368f4e41f066fd1c82c297b4a1108","77.229.212.211","Mozilla/5.0 (Windows NT 10.0; Win64; x64) AppleWebKit/537.36 (KHTML, like Gecko) Chrome/107.0.0.0 Safari/537.36","WebKit","Chrome","107.0.0.0","Windows","10.0","[0]","","24","3",""
"10734","You see how an owl is sitting on the branch <br> T&uacute ves como un b&uacuteho est&aacute reposando en una rama","{""Q0"":3}","trial","19080","survey-likert","49","257922","0.0-5.0-0.27","57","1","2022-11-29 21:29:18","2df368f4e41f066fd1c82c297b4a1108","77.229.212.211","Mozilla/5.0 (Windows NT 10.0; Win64; x64) AppleWebKit/537.36 (KHTML, like Gecko) Chrome/107.0.0.0 Safari/537.36","WebKit","Chrome","107.0.0.0","Windows","10.0","[0]","","69","3",""
"2831","You see how a boy is peeling a banana <br> T&uacute ves como un ni&ntildeo est&aacute pelando una banana","{""Q0"":4}","trial","19080","survey-likert","50","260757","0.0-5.0-0.28","57","1","2022-11-29 21:29:18","2df368f4e41f066fd1c82c297b4a1108","77.229.212.211","Mozilla/5.0 (Windows NT 10.0; Win64; x64) AppleWebKit/537.36 (KHTML, like Gecko) Chrome/107.0.0.0 Safari/537.36","WebKit","Chrome","107.0.0.0","Windows","10.0","[0]","","30","4",""
"2246","You drop a bowling ball on an iPhone <br> T&uacute tiras una bola de boliche a un iPhone","{""Q0"":4}","trial","19080","survey-likert","51","263007","0.0-5.0-0.29","57","1","2022-11-29 21:29:18","2df368f4e41f066fd1c82c297b4a1108","77.229.212.211","Mozilla/5.0 (Windows NT 10.0; Win64; x64) AppleWebKit/537.36 (KHTML, like Gecko) Chrome/107.0.0.0 Safari/537.36","WebKit","Chrome","107.0.0.0","Windows","10.0","[0]","","13","4",""
"1953","You see how a musician is playing a guitar <br> T&uacute ves como un m&uacutesico est&aacute tocando la guitarra","{""Q0"":4}","trial","19080","survey-likert","52","264964","0.0-5.0-0.30","57","1","2022-11-29 21:29:18","2df368f4e41f066fd1c82c297b4a1108","77.229.212.211","Mozilla/5.0 (Windows NT 10.0; Win64; x64) AppleWebKit/537.36 (KHTML, like Gecko) Chrome/107.0.0.0 Safari/537.36","WebKit","Chrome","107.0.0.0","Windows","10.0","[0]","","27","4",""
"3426","You drop a bowling ball on glasses <br> T&uacute tiras una bola de boliche a unas gafas","{""Q0"":4}","trial","19080","survey-likert","53","268395","0.0-5.0-0.31","57","1","2022-11-29 21:29:18","2df368f4e41f066fd1c82c297b4a1108","77.229.212.211","Mozilla/5.0 (Windows NT 10.0; Win64; x64) AppleWebKit/537.36 (KHTML, like Gecko) Chrome/107.0.0.0 Safari/537.36","WebKit","Chrome","107.0.0.0","Windows","10.0","[0]","","9","4",""
"5914","You see how a kitten is playing in the sandbox <br> T&uacute ves como un gatito est&aacute jugando en la caja de arena","{""Q0"":4}","trial","19080","survey-likert","54","274313","0.0-5.0-0.32","57","1","2022-11-29 21:29:18","2df368f4e41f066fd1c82c297b4a1108","77.229.212.211","Mozilla/5.0 (Windows NT 10.0; Win64; x64) AppleWebKit/537.36 (KHTML, like Gecko) Chrome/107.0.0.0 Safari/537.36","WebKit","Chrome","107.0.0.0","Windows","10.0","[0]","","52","4",""
"19710","You drop a bowling ball on a tomato <br> T&uacute tiras una bola de boliche a un tomate","{""Q0"":1}","trial","19080","survey-likert","55","294027","0.0-5.0-0.33","57","1","2022-11-29 21:29:18","2df368f4e41f066fd1c82c297b4a1108","77.229.212.211","Mozilla/5.0 (Windows NT 10.0; Win64; x64) AppleWebKit/537.36 (KHTML, like Gecko) Chrome/107.0.0.0 Safari/537.36","WebKit","Chrome","107.0.0.0","Windows","10.0","[0]","","23","1",""
"5320","You drop a bowling ball on a tomato <br> T&uacute tiras una bola de boliche a un tomate","{""Q0"":""Tú tiras una bola de bolos sobre un tomate""}","low_rate","19080","survey-text","56","299354","0.0-5.0-1.33-0.33","57","1","2022-11-29 21:29:18","2df368f4e41f066fd1c82c297b4a1108","77.229.212.211","Mozilla/5.0 (Windows NT 10.0; Win64; x64) AppleWebKit/537.36 (KHTML, like Gecko) Chrome/107.0.0.0 Safari/537.36","WebKit","Chrome","107.0.0.0","Windows","10.0","","","23","",""
"18442","You see how a man is shaving his beard <br> T&uacute ves como un hombre se est&aacute afeitando la barba","{""Q0"":4}","trial","19080","survey-likert","57","317797","0.0-5.0-0.34","57","1","2022-11-29 21:29:18","2df368f4e41f066fd1c82c297b4a1108","77.229.212.211","Mozilla/5.0 (Windows NT 10.0; Win64; x64) AppleWebKit/537.36 (KHTML, like Gecko) Chrome/107.0.0.0 Safari/537.36","WebKit","Chrome","107.0.0.0","Windows","10.0","[0]","","43","4",""
"5872","You drop a bowling ball on a porcelain figure <br> T&uacute tiras una bola de boliche a una figura de porcelana","{""Q0"":2}","trial","19080","survey-likert","58","323674","0.0-5.0-0.35","57","1","2022-11-29 21:29:18","2df368f4e41f066fd1c82c297b4a1108","77.229.212.211","Mozilla/5.0 (Windows NT 10.0; Win64; x64) AppleWebKit/537.36 (KHTML, like Gecko) Chrome/107.0.0.0 Safari/537.36","WebKit","Chrome","107.0.0.0","Windows","10.0","[0]","","1","2",""
"7729","You see how a hairdresser is taking scissors <br> T&uacute ves como una peluquera est&aacute agarrando las tijeras","{""Q0"":1}","trial","19080","survey-likert","59","331407","0.0-5.0-0.36","57","1","2022-11-29 21:29:18","2df368f4e41f066fd1c82c297b4a1108","77.229.212.211","Mozilla/5.0 (Windows NT 10.0; Win64; x64) AppleWebKit/537.36 (KHTML, like Gecko) Chrome/107.0.0.0 Safari/537.36","WebKit","Chrome","107.0.0.0","Windows","10.0","[0]","","60","1",""
"9797","You see how a hairdresser is taking scissors <br> T&uacute ves como una peluquera est&aacute agarrando las tijeras","{""Q0"":""Tú ves como una peluquera está cogiendo sus tijeras.""}","low_rate","19080","survey-text","60","341210","0.0-5.0-1.36-0.36","57","1","2022-11-29 21:29:18","2df368f4e41f066fd1c82c297b4a1108","77.229.212.211","Mozilla/5.0 (Windows NT 10.0; Win64; x64) AppleWebKit/537.36 (KHTML, like Gecko) Chrome/107.0.0.0 Safari/537.36","WebKit","Chrome","107.0.0.0","Windows","10.0","","","60","",""
"4308","You see how an actress is taking a microphone <br> T&uacute ves como una actriz est&aacute agarrando el micr&oacutefono","{""Q0"":1}","trial","19080","survey-likert","61","345521","0.0-5.0-0.37","57","1","2022-11-29 21:29:18","2df368f4e41f066fd1c82c297b4a1108","77.229.212.211","Mozilla/5.0 (Windows NT 10.0; Win64; x64) AppleWebKit/537.36 (KHTML, like Gecko) Chrome/107.0.0.0 Safari/537.36","WebKit","Chrome","107.0.0.0","Windows","10.0","[0]","","51","1",""
"9647","You see how an actress is taking a microphone <br> T&uacute ves como una actriz est&aacute agarrando el micr&oacutefono","{""Q0"":""Tú ves como una cantante está cogiendo el micrófono""}","low_rate","19080","survey-text","62","355173","0.0-5.0-1.37-0.37","57","1","2022-11-29 21:29:18","2df368f4e41f066fd1c82c297b4a1108","77.229.212.211","Mozilla/5.0 (Windows NT 10.0; Win64; x64) AppleWebKit/537.36 (KHTML, like Gecko) Chrome/107.0.0.0 Safari/537.36","WebKit","Chrome","107.0.0.0","Windows","10.0","","","51","",""
"4019","You drop a bowling ball on a wine glass <br> T&uacute tiras una bola de boliche a una copa de vino","{""Q0"":2}","trial","19080","survey-likert","63","359193","0.0-5.0-0.38","57","1","2022-11-29 21:29:18","2df368f4e41f066fd1c82c297b4a1108","77.229.212.211","Mozilla/5.0 (Windows NT 10.0; Win64; x64) AppleWebKit/537.36 (KHTML, like Gecko) Chrome/107.0.0.0 Safari/537.36","WebKit","Chrome","107.0.0.0","Windows","10.0","[0]","","5","2",""
"2148","You drop a bowling ball on a cracker <br> T&uacute tiras una bola de boliche a una galleta","{""Q0"":3}","trial","19080","survey-likert","64","361346","0.0-5.0-0.39","57","1","2022-11-29 21:29:18","2df368f4e41f066fd1c82c297b4a1108","77.229.212.211","Mozilla/5.0 (Windows NT 10.0; Win64; x64) AppleWebKit/537.36 (KHTML, like Gecko) Chrome/107.0.0.0 Safari/537.36","WebKit","Chrome","107.0.0.0","Windows","10.0","[0]","","4","3",""
"4839","You see how a thief is stealing a wallet <br> T&uacute ves como un ladr&oacuten est&aacute robando una billetera","{""Q0"":4}","trial","19080","survey-likert","65","366190","0.0-5.0-0.40","57","1","2022-11-29 21:29:18","2df368f4e41f066fd1c82c297b4a1108","77.229.212.211","Mozilla/5.0 (Windows NT 10.0; Win64; x64) AppleWebKit/537.36 (KHTML, like Gecko) Chrome/107.0.0.0 Safari/537.36","WebKit","Chrome","107.0.0.0","Windows","10.0","[0]","","68","4",""
"3554","You see how a photographer is taking a photo of a lion <br> T&uacute ves como un fot&oacutegrafo est&aacute tomando una foto de un le&oacuten","{""Q0"":4}","trial","19080","survey-likert","66","369749","0.0-5.0-0.41","57","1","2022-11-29 21:29:18","2df368f4e41f066fd1c82c297b4a1108","77.229.212.211","Mozilla/5.0 (Windows NT 10.0; Win64; x64) AppleWebKit/537.36 (KHTML, like Gecko) Chrome/107.0.0.0 Safari/537.36","WebKit","Chrome","107.0.0.0","Windows","10.0","[0]","","72","4",""
"3523","You see how a police officer is talking on the phone <br> T&uacute ves como un polic&iacutea est&aacute hablando por el tel&eacutefono","{""Q0"":4}","trial","19080","survey-likert","67","373277","0.0-5.0-0.42","57","1","2022-11-29 21:29:18","2df368f4e41f066fd1c82c297b4a1108","77.229.212.211","Mozilla/5.0 (Windows NT 10.0; Win64; x64) AppleWebKit/537.36 (KHTML, like Gecko) Chrome/107.0.0.0 Safari/537.36","WebKit","Chrome","107.0.0.0","Windows","10.0","[0]","","62","4",""
"7715","You drop a remote on the rug <br> T&uacute tiras un control remoto a la alfombra","{""Q0"":1}","trial","19080","survey-likert","68","380997","0.0-5.0-0.43","57","1","2022-11-29 21:29:18","2df368f4e41f066fd1c82c297b4a1108","77.229.212.211","Mozilla/5.0 (Windows NT 10.0; Win64; x64) AppleWebKit/537.36 (KHTML, like Gecko) Chrome/107.0.0.0 Safari/537.36","WebKit","Chrome","107.0.0.0","Windows","10.0","[0]","","39","1",""
"7986","You drop a remote on the rug <br> T&uacute tiras un control remoto a la alfombra","{""Q0"":""Tú tiras el control remoto sobre una alfombra""}","low_rate","19080","survey-text","69","388989","0.0-5.0-1.43-0.43","57","1","2022-11-29 21:29:18","2df368f4e41f066fd1c82c297b4a1108","77.229.212.211","Mozilla/5.0 (Windows NT 10.0; Win64; x64) AppleWebKit/537.36 (KHTML, like Gecko) Chrome/107.0.0.0 Safari/537.36","WebKit","Chrome","107.0.0.0","Windows","10.0","","","39","",""
"4632","You see how a cook is taking a knife <br> T&uacute ves como un cocinero est&aacute agarrando un cuchillo","{""Q0"":1}","trial","19080","survey-likert","70","393623","0.0-5.0-0.44","57","1","2022-11-29 21:29:18","2df368f4e41f066fd1c82c297b4a1108","77.229.212.211","Mozilla/5.0 (Windows NT 10.0; Win64; x64) AppleWebKit/537.36 (KHTML, like Gecko) Chrome/107.0.0.0 Safari/537.36","WebKit","Chrome","107.0.0.0","Windows","10.0","[0]","","71","1",""
"7716","You see how a cook is taking a knife <br> T&uacute ves como un cocinero est&aacute agarrando un cuchillo","{""Q0"":""Tú ves como un cocinera está cogiendo su cuchillo""}","low_rate","19080","survey-text","71","401345","0.0-5.0-1.44-0.44","57","1","2022-11-29 21:29:18","2df368f4e41f066fd1c82c297b4a1108","77.229.212.211","Mozilla/5.0 (Windows NT 10.0; Win64; x64) AppleWebKit/537.36 (KHTML, like Gecko) Chrome/107.0.0.0 Safari/537.36","WebKit","Chrome","107.0.0.0","Windows","10.0","","","71","",""
"4461","You see how an astronaut is putting on a space suit <br> T&uacute ves como un astronauta se est&aacute poniendo su traje espacial","{""Q0"":4}","trial","19080","survey-likert","72","405809","0.0-5.0-0.45","57","1","2022-11-29 21:29:18","2df368f4e41f066fd1c82c297b4a1108","77.229.212.211","Mozilla/5.0 (Windows NT 10.0; Win64; x64) AppleWebKit/537.36 (KHTML, like Gecko) Chrome/107.0.0.0 Safari/537.36","WebKit","Chrome","107.0.0.0","Windows","10.0","[0]","","33","4",""
"2114","You drop a bowling ball on an empty can of beer <br> T&uacute tiras una bola de boliche a una lata de cerveza vac&iacutea","{""Q0"":4}","trial","19080","survey-likert","73","407927","0.0-5.0-0.46","57","1","2022-11-29 21:29:18","2df368f4e41f066fd1c82c297b4a1108","77.229.212.211","Mozilla/5.0 (Windows NT 10.0; Win64; x64) AppleWebKit/537.36 (KHTML, like Gecko) Chrome/107.0.0.0 Safari/537.36","WebKit","Chrome","107.0.0.0","Windows","10.0","[0]","","3","4",""
"3480","You see how a teenage girl is playing the piano <br> T&uacute ves como una ni&ntildea adolescente est&aacute tocando el piano","{""Q0"":4}","trial","19080","survey-likert","74","411412","0.0-5.0-0.47","57","1","2022-11-29 21:29:18","2df368f4e41f066fd1c82c297b4a1108","77.229.212.211","Mozilla/5.0 (Windows NT 10.0; Win64; x64) AppleWebKit/537.36 (KHTML, like Gecko) Chrome/107.0.0.0 Safari/537.36","WebKit","Chrome","107.0.0.0","Windows","10.0","[0]","","54","4",""
"5354","You drop a bowling ball on a hat <br> T&uacute tiras una bola de boliche a una gorra","{""Q0"":1}","trial","19080","survey-likert","75","416771","0.0-5.0-0.48","57","1","2022-11-29 21:29:18","2df368f4e41f066fd1c82c297b4a1108","77.229.212.211","Mozilla/5.0 (Windows NT 10.0; Win64; x64) AppleWebKit/537.36 (KHTML, like Gecko) Chrome/107.0.0.0 Safari/537.36","WebKit","Chrome","107.0.0.0","Windows","10.0","[0]","","10","1",""
"6322","You drop a bowling ball on a hat <br> T&uacute tiras una bola de boliche a una gorra","{""Q0"":""Tú tiras una bola de bolos sobre una gorra.""}","low_rate","19080","survey-text","76","423099","0.0-5.0-1.48-0.48","57","1","2022-11-29 21:29:18","2df368f4e41f066fd1c82c297b4a1108","77.229.212.211","Mozilla/5.0 (Windows NT 10.0; Win64; x64) AppleWebKit/537.36 (KHTML, like Gecko) Chrome/107.0.0.0 Safari/537.36","WebKit","Chrome","107.0.0.0","Windows","10.0","","","10","",""
"2889","You see how a panda is resting on a tree <br> T&uacute ves como un panda est&aacute descansando en un &aacuterbol","{""Q0"":4}","trial","19080","survey-likert","77","425991","0.0-5.0-0.49","57","1","2022-11-29 21:29:18","2df368f4e41f066fd1c82c297b4a1108","77.229.212.211","Mozilla/5.0 (Windows NT 10.0; Win64; x64) AppleWebKit/537.36 (KHTML, like Gecko) Chrome/107.0.0.0 Safari/537.36","WebKit","Chrome","107.0.0.0","Windows","10.0","[0]","","57","4",""
"3582","You drop a bowling ball on an iPAD <br> T&uacute tiras una bola de boliche a un iPad","{""Q0"":1}","trial","19080","survey-likert","78","429579","0.0-5.0-0.50","57","1","2022-11-29 21:29:18","2df368f4e41f066fd1c82c297b4a1108","77.229.212.211","Mozilla/5.0 (Windows NT 10.0; Win64; x64) AppleWebKit/537.36 (KHTML, like Gecko) Chrome/107.0.0.0 Safari/537.36","WebKit","Chrome","107.0.0.0","Windows","10.0","[0]","","12","1",""
"7625","You drop a bowling ball on an iPAD <br> T&uacute tiras una bola de boliche a un iPad","{""Q0"":""Tú tiras una bola de bolos sobre un Ipad.""}","low_rate","19080","survey-text","79","437209","0.0-5.0-1.50-0.50","57","1","2022-11-29 21:29:18","2df368f4e41f066fd1c82c297b4a1108","77.229.212.211","Mozilla/5.0 (Windows NT 10.0; Win64; x64) AppleWebKit/537.36 (KHTML, like Gecko) Chrome/107.0.0.0 Safari/537.36","WebKit","Chrome","107.0.0.0","Windows","10.0","","","12","",""
"5689","You drop a toothbrush on the sponge <br> T&uacute tiras un cepillo de dientes en la esponja","{""Q0"":1}","trial","19080","survey-likert","80","442901","0.0-5.0-0.51","57","1","2022-11-29 21:29:18","2df368f4e41f066fd1c82c297b4a1108","77.229.212.211","Mozilla/5.0 (Windows NT 10.0; Win64; x64) AppleWebKit/537.36 (KHTML, like Gecko) Chrome/107.0.0.0 Safari/537.36","WebKit","Chrome","107.0.0.0","Windows","10.0","[0]","","25","1",""
"7406","You drop a toothbrush on the sponge <br> T&uacute tiras un cepillo de dientes en la esponja","{""Q0"":""Tú tiras un cepillo de dientes sobre una esponja""}","low_rate","19080","survey-text","81","450313","0.0-5.0-1.51-0.51","57","1","2022-11-29 21:29:18","2df368f4e41f066fd1c82c297b4a1108","77.229.212.211","Mozilla/5.0 (Windows NT 10.0; Win64; x64) AppleWebKit/537.36 (KHTML, like Gecko) Chrome/107.0.0.0 Safari/537.36","WebKit","Chrome","107.0.0.0","Windows","10.0","","","25","",""
"30973","You drop a bowling ball on a chocolate ice-cream <br> T&uacute tiras una bola de boliche a un helado de chocolate","{""Q0"":1}","trial","19080","survey-likert","82","481284","0.0-5.0-0.52","57","1","2022-11-29 21:29:18","2df368f4e41f066fd1c82c297b4a1108","77.229.212.211","Mozilla/5.0 (Windows NT 10.0; Win64; x64) AppleWebKit/537.36 (KHTML, like Gecko) Chrome/107.0.0.0 Safari/537.36","WebKit","Chrome","107.0.0.0","Windows","10.0","[0]","","11","1",""
"8421","You drop a bowling ball on a chocolate ice-cream <br> T&uacute tiras una bola de boliche a un helado de chocolate","{""Q0"":""Tú tiras una bola de bolos sobre un helado de chocolate""}","low_rate","19080","survey-text","83","489711","0.0-5.0-1.52-0.52","57","1","2022-11-29 21:29:18","2df368f4e41f066fd1c82c297b4a1108","77.229.212.211","Mozilla/5.0 (Windows NT 10.0; Win64; x64) AppleWebKit/537.36 (KHTML, like Gecko) Chrome/107.0.0.0 Safari/537.36","WebKit","Chrome","107.0.0.0","Windows","10.0","","","11","",""
"2500","You drop a bowling ball on a piece of sushi <br> T&uacute tiras una bola de boliche a un pedazo de sushi","{""Q0"":1}","trial","19080","survey-likert","84","492214","0.0-5.0-0.53","57","1","2022-11-29 21:29:18","2df368f4e41f066fd1c82c297b4a1108","77.229.212.211","Mozilla/5.0 (Windows NT 10.0; Win64; x64) AppleWebKit/537.36 (KHTML, like Gecko) Chrome/107.0.0.0 Safari/537.36","WebKit","Chrome","107.0.0.0","Windows","10.0","[0]","","21","1",""
"9279","You drop a bowling ball on a piece of sushi <br> T&uacute tiras una bola de boliche a un pedazo de sushi","{""Q0"":""Tú tiras una bola de bolos sobre el sushi.""}","low_rate","19080","survey-text","85","501497","0.0-5.0-1.53-0.53","57","1","2022-11-29 21:29:18","2df368f4e41f066fd1c82c297b4a1108","77.229.212.211","Mozilla/5.0 (Windows NT 10.0; Win64; x64) AppleWebKit/537.36 (KHTML, like Gecko) Chrome/107.0.0.0 Safari/537.36","WebKit","Chrome","107.0.0.0","Windows","10.0","","","21","",""
"2635","You see how a postman is driving a car <br> T&uacute ves como un cartero est&aacute conduciendo un coche","{""Q0"":4}","trial","19080","survey-likert","86","504135","0.0-5.0-0.54","57","1","2022-11-29 21:29:18","2df368f4e41f066fd1c82c297b4a1108","77.229.212.211","Mozilla/5.0 (Windows NT 10.0; Win64; x64) AppleWebKit/537.36 (KHTML, like Gecko) Chrome/107.0.0.0 Safari/537.36","WebKit","Chrome","107.0.0.0","Windows","10.0","[0]","","32","4",""
"3528","You see how a doctor is taking a stethoscope <br> T&uacute ves como un doctor est&aacute agarrando un estetoscopio","{""Q0"":1}","trial","19080","survey-likert","87","507668","0.0-5.0-0.55","57","1","2022-11-29 21:29:18","2df368f4e41f066fd1c82c297b4a1108","77.229.212.211","Mozilla/5.0 (Windows NT 10.0; Win64; x64) AppleWebKit/537.36 (KHTML, like Gecko) Chrome/107.0.0.0 Safari/537.36","WebKit","Chrome","107.0.0.0","Windows","10.0","[0]","","49","1",""
"8895","You see how a doctor is taking a stethoscope <br> T&uacute ves como un doctor est&aacute agarrando un estetoscopio","{""Q0"":""Tú ves como un doctor está cogiendo un estetoscopio""}","low_rate","19080","survey-text","88","516568","0.0-5.0-1.55-0.55","57","1","2022-11-29 21:29:18","2df368f4e41f066fd1c82c297b4a1108","77.229.212.211","Mozilla/5.0 (Windows NT 10.0; Win64; x64) AppleWebKit/537.36 (KHTML, like Gecko) Chrome/107.0.0.0 Safari/537.36","WebKit","Chrome","107.0.0.0","Windows","10.0","","","49","",""
"8320","You drop a watch on the laptop <br> T&uacute tiras un reloj al port&aacutetil","{""Q0"":1}","trial","19080","survey-likert","89","524891","0.0-5.0-0.56","57","1","2022-11-29 21:29:18","2df368f4e41f066fd1c82c297b4a1108","77.229.212.211","Mozilla/5.0 (Windows NT 10.0; Win64; x64) AppleWebKit/537.36 (KHTML, like Gecko) Chrome/107.0.0.0 Safari/537.36","WebKit","Chrome","107.0.0.0","Windows","10.0","[0]","","37","1",""
"5473","You drop a watch on the laptop <br> T&uacute tiras un reloj al port&aacutetil","{""Q0"":""Tú tiras un reloj sobre el portatil""}","low_rate","19080","survey-text","90","530370","0.0-5.0-1.56-0.56","57","1","2022-11-29 21:29:18","2df368f4e41f066fd1c82c297b4a1108","77.229.212.211","Mozilla/5.0 (Windows NT 10.0; Win64; x64) AppleWebKit/537.36 (KHTML, like Gecko) Chrome/107.0.0.0 Safari/537.36","WebKit","Chrome","107.0.0.0","Windows","10.0","","","37","",""
"3155","You see how a zebra is playing with a horse <br> T&uacute ves como una cebra est&aacute jugando con un caballo","{""Q0"":4}","trial","19080","survey-likert","91","533527","0.0-5.0-0.57","57","1","2022-11-29 21:29:18","2df368f4e41f066fd1c82c297b4a1108","77.229.212.211","Mozilla/5.0 (Windows NT 10.0; Win64; x64) AppleWebKit/537.36 (KHTML, like Gecko) Chrome/107.0.0.0 Safari/537.36","WebKit","Chrome","107.0.0.0","Windows","10.0","[0]","","66","4",""
"4251","You drop a towel on the TV <br> T&uacute tiras una toalla a la televisi&oacuten","{""Q0"":1}","trial","19080","survey-likert","92","537785","0.0-5.0-0.58","57","1","2022-11-29 21:29:18","2df368f4e41f066fd1c82c297b4a1108","77.229.212.211","Mozilla/5.0 (Windows NT 10.0; Win64; x64) AppleWebKit/537.36 (KHTML, like Gecko) Chrome/107.0.0.0 Safari/537.36","WebKit","Chrome","107.0.0.0","Windows","10.0","[0]","","53","1",""
"6023","You drop a towel on the TV <br> T&uacute tiras una toalla a la televisi&oacuten","{""Q0"":""Tú tiras una toalla sobre la televisión.""}","low_rate","19080","survey-text","93","543817","0.0-5.0-1.58-0.58","57","1","2022-11-29 21:29:18","2df368f4e41f066fd1c82c297b4a1108","77.229.212.211","Mozilla/5.0 (Windows NT 10.0; Win64; x64) AppleWebKit/537.36 (KHTML, like Gecko) Chrome/107.0.0.0 Safari/537.36","WebKit","Chrome","107.0.0.0","Windows","10.0","","","53","",""
"5060","You see how a president is writing in the notebook <br> T&uacute ves como un presidente est&aacute escribiendo en la libreta","{""Q0"":4}","trial","19080","survey-likert","94","548880","0.0-5.0-0.59","57","1","2022-11-29 21:29:18","2df368f4e41f066fd1c82c297b4a1108","77.229.212.211","Mozilla/5.0 (Windows NT 10.0; Win64; x64) AppleWebKit/537.36 (KHTML, like Gecko) Chrome/107.0.0.0 Safari/537.36","WebKit","Chrome","107.0.0.0","Windows","10.0","[0]","","63","4",""
"4123","You drop a bowling ball on a tile <br> T&uacute tiras una bola de boliche a una baldosa","{""Q0"":2}","trial","19080","survey-likert","95","553008","0.0-5.0-0.60","57","1","2022-11-29 21:29:18","2df368f4e41f066fd1c82c297b4a1108","77.229.212.211","Mozilla/5.0 (Windows NT 10.0; Win64; x64) AppleWebKit/537.36 (KHTML, like Gecko) Chrome/107.0.0.0 Safari/537.36","WebKit","Chrome","107.0.0.0","Windows","10.0","[0]","","22","2",""
"2096","You drop a bowling ball on a strawberry <br> T&uacute tiras una bola de boliche a una fresa","{""Q0"":2}","trial","19080","survey-likert","96","555109","0.0-5.0-0.61","57","1","2022-11-29 21:29:18","2df368f4e41f066fd1c82c297b4a1108","77.229.212.211","Mozilla/5.0 (Windows NT 10.0; Win64; x64) AppleWebKit/537.36 (KHTML, like Gecko) Chrome/107.0.0.0 Safari/537.36","WebKit","Chrome","107.0.0.0","Windows","10.0","[0]","","20","2",""
"2581","You see how a woman is paying with a debit card <br> T&uacute ves como una mujer est&aacute pagando con una tarjeta de d&eacutebito","{""Q0"":4}","trial","19080","survey-likert","97","557695","0.0-5.0-0.62","57","1","2022-11-29 21:29:18","2df368f4e41f066fd1c82c297b4a1108","77.229.212.211","Mozilla/5.0 (Windows NT 10.0; Win64; x64) AppleWebKit/537.36 (KHTML, like Gecko) Chrome/107.0.0.0 Safari/537.36","WebKit","Chrome","107.0.0.0","Windows","10.0","[0]","","64","4",""
"3027","You drop a ring on the newspaper <br> T&uacute tiras un anillo al peri&oacutedico","{""Q0"":1}","trial","19080","survey-likert","98","560727","0.0-5.0-0.63","57","1","2022-11-29 21:29:18","2df368f4e41f066fd1c82c297b4a1108","77.229.212.211","Mozilla/5.0 (Windows NT 10.0; Win64; x64) AppleWebKit/537.36 (KHTML, like Gecko) Chrome/107.0.0.0 Safari/537.36","WebKit","Chrome","107.0.0.0","Windows","10.0","[0]","","41","1",""
"6164","You drop a ring on the newspaper <br> T&uacute tiras un anillo al peri&oacutedico","{""Q0"":""Tú tiras un anillo sobre el periódico""}","low_rate","19080","survey-text","99","566896","0.0-5.0-1.63-0.63","57","1","2022-11-29 21:29:18","2df368f4e41f066fd1c82c297b4a1108","77.229.212.211","Mozilla/5.0 (Windows NT 10.0; Win64; x64) AppleWebKit/537.36 (KHTML, like Gecko) Chrome/107.0.0.0 Safari/537.36","WebKit","Chrome","107.0.0.0","Windows","10.0","","","41","",""
"3224","You see how a mouse is eating cheese <br> T&uacute ves como el rat&oacuten est&aacute comiendo queso","{""Q0"":4}","trial","19080","survey-likert","100","570123","0.0-5.0-0.64","57","1","2022-11-29 21:29:18","2df368f4e41f066fd1c82c297b4a1108","77.229.212.211","Mozilla/5.0 (Windows NT 10.0; Win64; x64) AppleWebKit/537.36 (KHTML, like Gecko) Chrome/107.0.0.0 Safari/537.36","WebKit","Chrome","107.0.0.0","Windows","10.0","[0]","","56","4",""
"2375","You see how an old man is hammering a nail <br> T&uacute ves como un hombre anciano est&aacute martillando un clavo","{""Q0"":4}","trial","19080","survey-likert","101","572503","0.0-5.0-0.65","57","1","2022-11-29 21:29:18","2df368f4e41f066fd1c82c297b4a1108","77.229.212.211","Mozilla/5.0 (Windows NT 10.0; Win64; x64) AppleWebKit/537.36 (KHTML, like Gecko) Chrome/107.0.0.0 Safari/537.36","WebKit","Chrome","107.0.0.0","Windows","10.0","[0]","","29","4",""
"1941","You see how a man is playing with a cat <br> T&uacute ves como un hombre est&aacute jugando con un gato","{""Q0"":4}","trial","19080","survey-likert","102","574449","0.0-5.0-0.66","57","1","2022-11-29 21:29:18","2df368f4e41f066fd1c82c297b4a1108","77.229.212.211","Mozilla/5.0 (Windows NT 10.0; Win64; x64) AppleWebKit/537.36 (KHTML, like Gecko) Chrome/107.0.0.0 Safari/537.36","WebKit","Chrome","107.0.0.0","Windows","10.0","[0]","","67","4",""
"2788","You see how a cat is drinking water from a bowl <br> T&uacute ves como un gato est&aacute bebiendo agua de un cuenco","{""Q0"":4}","trial","19080","survey-likert","103","577243","0.0-5.0-0.67","57","1","2022-11-29 21:29:18","2df368f4e41f066fd1c82c297b4a1108","77.229.212.211","Mozilla/5.0 (Windows NT 10.0; Win64; x64) AppleWebKit/537.36 (KHTML, like Gecko) Chrome/107.0.0.0 Safari/537.36","WebKit","Chrome","107.0.0.0","Windows","10.0","[0]","","28","4",""
"2551","You see how a butterfly is sitting on a flower <br> T&uacute ves como una mariposa est&aacute reposando en una flor","{""Q0"":4}","trial","19080","survey-likert","104","579799","0.0-5.0-0.68","57","1","2022-11-29 21:29:18","2df368f4e41f066fd1c82c297b4a1108","77.229.212.211","Mozilla/5.0 (Windows NT 10.0; Win64; x64) AppleWebKit/537.36 (KHTML, like Gecko) Chrome/107.0.0.0 Safari/537.36","WebKit","Chrome","107.0.0.0","Windows","10.0","[0]","","59","4",""
"3383","You drop a cabbage on the table <br> T&uacute tiras una col a la mesa","{""Q0"":1}","trial","19080","survey-likert","105","583187","0.0-5.0-0.69","57","1","2022-11-29 21:29:18","2df368f4e41f066fd1c82c297b4a1108","77.229.212.211","Mozilla/5.0 (Windows NT 10.0; Win64; x64) AppleWebKit/537.36 (KHTML, like Gecko) Chrome/107.0.0.0 Safari/537.36","WebKit","Chrome","107.0.0.0","Windows","10.0","[0]","","35","1",""
"5783","You drop a cabbage on the table <br> T&uacute tiras una col a la mesa","{""Q0"":""Tú tiras una col sobre la mesa""}","low_rate","19080","survey-text","106","588976","0.0-5.0-1.69-0.69","57","1","2022-11-29 21:29:18","2df368f4e41f066fd1c82c297b4a1108","77.229.212.211","Mozilla/5.0 (Windows NT 10.0; Win64; x64) AppleWebKit/537.36 (KHTML, like Gecko) Chrome/107.0.0.0 Safari/537.36","WebKit","Chrome","107.0.0.0","Windows","10.0","","","35","",""
"2868","You drop a pencil on the shoe <br> T&uacute tiras un l&aacutepiz al zapato","{""Q0"":1}","trial","19080","survey-likert","107","591847","0.0-5.0-0.70","57","1","2022-11-29 21:29:18","2df368f4e41f066fd1c82c297b4a1108","77.229.212.211","Mozilla/5.0 (Windows NT 10.0; Win64; x64) AppleWebKit/537.36 (KHTML, like Gecko) Chrome/107.0.0.0 Safari/537.36","WebKit","Chrome","107.0.0.0","Windows","10.0","[0]","","40","1",""
"7154","You drop a pencil on the shoe <br> T&uacute tiras un l&aacutepiz al zapato","{""Q0"":""Tú tiras un lápiz sobre el zapato.""}","low_rate","19080","survey-text","108","598998","0.0-5.0-1.70-0.70","57","1","2022-11-29 21:29:18","2df368f4e41f066fd1c82c297b4a1108","77.229.212.211","Mozilla/5.0 (Windows NT 10.0; Win64; x64) AppleWebKit/537.36 (KHTML, like Gecko) Chrome/107.0.0.0 Safari/537.36","WebKit","Chrome","107.0.0.0","Windows","10.0","","","40","",""
"3577","You see how an elephant is eating a watermelon <br> T&uacute ves como un elefante est&aacute comiendo una sand&iacutea","{""Q0"":4}","trial","19080","survey-likert","109","602579","0.0-5.0-0.71","57","1","2022-11-29 21:29:18","2df368f4e41f066fd1c82c297b4a1108","77.229.212.211","Mozilla/5.0 (Windows NT 10.0; Win64; x64) AppleWebKit/537.36 (KHTML, like Gecko) Chrome/107.0.0.0 Safari/537.36","WebKit","Chrome","107.0.0.0","Windows","10.0","[0]","","31","4",""
"2592","
    <p style=""font-size:20px;""> You have completed the experiment portion! </p>
    <p style=""font-size:20px;""> Before you are done, we would like you to answer some basic demographic questions. </p>
    <p style=""font-size:20px;""> Note that your answers to these questions will not affect your compensation/credit. </p>
    <p style=""font-size:20px;""> Click the button below to continue.</p>
    ","0","demo","19080","html-button-response","110","605176","0.0-6.0","57","1","2022-11-29 21:29:18","2df368f4e41f066fd1c82c297b4a1108","77.229.212.211","Mozilla/5.0 (Windows NT 10.0; Win64; x64) AppleWebKit/537.36 (KHTML, like Gecko) Chrome/107.0.0.0 Safari/537.36","WebKit","Chrome","107.0.0.0","Windows","10.0","","","","",""
"13824","","{""Age"":""35"",""Gender"":""Male"",""Education"":""18""}","demo","19080","survey-text","111","619006","0.0-7.0-0.0","57","1","2022-11-29 21:29:18","2df368f4e41f066fd1c82c297b4a1108","77.229.212.211","Mozilla/5.0 (Windows NT 10.0; Win64; x64) AppleWebKit/537.36 (KHTML, like Gecko) Chrome/107.0.0.0 Safari/537.36","WebKit","Chrome","107.0.0.0","Windows","10.0","","","","",""
"3387","","{""Race"":[""White/Caucasian""]}","demo","19080","survey-multi-select","112","622400","0.0-7.0-1.0","57","1","2022-11-29 21:29:18","2df368f4e41f066fd1c82c297b4a1108","77.229.212.211","Mozilla/5.0 (Windows NT 10.0; Win64; x64) AppleWebKit/537.36 (KHTML, like Gecko) Chrome/107.0.0.0 Safari/537.36","WebKit","Chrome","107.0.0.0","Windows","10.0","[0]","","","",""
"6756","","{""Latino"":""Yes"",""Alert"":""Morning""}","demo","19080","survey-multi-choice","113","629162","0.0-7.0-2.0","57","1","2022-11-29 21:29:18","2df368f4e41f066fd1c82c297b4a1108","77.229.212.211","Mozilla/5.0 (Windows NT 10.0; Win64; x64) AppleWebKit/537.36 (KHTML, like Gecko) Chrome/107.0.0.0 Safari/537.36","WebKit","Chrome","107.0.0.0","Windows","10.0","[0,1]","","","",""
"2173","","{""Q0"":""""}","demo","19080","survey-text","114","631340","0.0-7.0-3.0","57","1","2022-11-29 21:29:18","2df368f4e41f066fd1c82c297b4a1108","77.229.212.211","Mozilla/5.0 (Windows NT 10.0; Win64; x64) AppleWebKit/537.36 (KHTML, like Gecko) Chrome/107.0.0.0 Safari/537.36","WebKit","Chrome","107.0.0.0","Windows","10.0","","","","",""
"11142","<p>Thank you for participating! </p><strong>Your completion code is: CXEJB7NH. Please copy-paste this code and submit it on Prolific.</strong><p>Click <a href=""https://drive.google.com/file/d/1c70cdHFlc0AaR6RujLWLJwWkv1RbHQJY/view?usp=sharing"" target=""_blank"" rel=""noopener noreferrer"">here</a> to access the debriefing form and know more about our research. <p> Please click the button below to finish the experiment and save your data.</p> <p> IMPORTANT: Please <strong>do not leave this page </strong> without clicking the button below.</p> <p> You may close the tab/window after you click the button below.","0","","","html-button-response","115","642488","0.0-8.0","57","1","2022-11-29 21:29:18","2df368f4e41f066fd1c82c297b4a1108","77.229.212.211","Mozilla/5.0 (Windows NT 10.0; Win64; x64) AppleWebKit/537.36 (KHTML, like Gecko) Chrome/107.0.0.0 Safari/537.36","WebKit","Chrome","107.0.0.0","Windows","10.0","","","","",""
