"rt","stimulus","response","typeoftrial","subject","trial_type","trial_index","time_elapsed","internal_node_id","run_id","condition","recorded_at","source_code_version","ip","user_agent","device","browser","browser_version","platform","platform_version","question_order","practice_rating","sentence_num","rating","Experiment"
"5696","
        <p style=""font-size:20px;""> Welcome! Thank you for your interest in our study. </p>
        <p style=""font-size:20px;""> This study is being conducted by researchers at Bowdoin College.</p>
        <p style=""font-size:20px;""> In this experiment, you will be asked to rate the accuracy of English and Spanish translations.</p>
        <p style=""font-size:20px;""> The entire experiment should not last more than 20 minutes. You will be paid $3 USD for your participation. </p>
        <p style=""font-size:20px;""> Please click <a href = ""https://drive.google.com/file/d/1L92a02eEKCpaAEipmqDcBCDR7rsarqFE/view?usp=sharing"" target = ""_blank"">here</a> to read the full consent form. </p>
        <p style=""font-size:20px;""> If you agree to participate, please click the button below to continue to experiment instructions.</p>
        ","0","consent","99422","html-button-response","0","5700","0.0-0.0","53","1","2022-11-29 21:25:28","2df368f4e41f066fd1c82c297b4a1108","177.226.129.204","Mozilla/5.0 (Windows NT 10.0; Win64; x64) AppleWebKit/537.36 (KHTML, like Gecko) Chrome/107.0.0.0 Safari/537.36","WebKit","Chrome","107.0.0.0","Windows","10.0","","","","",""
"4213","","{""ID"":""5b146e7bc85dc40001624518""}","ID","99422","survey-text","1","9924","0.0-1.0","53","1","2022-11-29 21:25:28","2df368f4e41f066fd1c82c297b4a1108","177.226.129.204","Mozilla/5.0 (Windows NT 10.0; Win64; x64) AppleWebKit/537.36 (KHTML, like Gecko) Chrome/107.0.0.0 Safari/537.36","WebKit","Chrome","107.0.0.0","Windows","10.0","","","","",""
"18535","
        <p style=""font-size:20px;""> You are about to begin the practice test. </p>
        <p style=""font-size:20px;""> On each trial, you will see a sentence in English and its corresponding Spanish translation. </p>
        <p style=""font-size:20px;""> You will rate the accuracy of the translation on a scale from ""Not at all accurate"" to ""Very accurate."" </p>
        <p style=""font-size:20px;""> If you rate the translation as ""Somewhat innaccurate"" or ""Not at all accurate,"" you will be asked to provide your own translation or a reason why the translation is inaccurate. </p>
        <p style=""font-size:20px;""> Click the button below to continue to the practice session.</p>","0","instructions","99422","html-button-response","2","28461","0.0-2.0","53","1","2022-11-29 21:25:28","2df368f4e41f066fd1c82c297b4a1108","177.226.129.204","Mozilla/5.0 (Windows NT 10.0; Win64; x64) AppleWebKit/537.36 (KHTML, like Gecko) Chrome/107.0.0.0 Safari/537.36","WebKit","Chrome","107.0.0.0","Windows","10.0","","","","",""
"7371","You see how an artist is running <br> T&uacute ves como un artista est&aacute corriendo","{""Q0"":4}","practice","99422","survey-likert","3","35836","0.0-3.0-0.0","53","1","2022-11-29 21:25:28","2df368f4e41f066fd1c82c297b4a1108","177.226.129.204","Mozilla/5.0 (Windows NT 10.0; Win64; x64) AppleWebKit/537.36 (KHTML, like Gecko) Chrome/107.0.0.0 Safari/537.36","WebKit","Chrome","107.0.0.0","Windows","10.0","[0]","4","","",""
"7514","You see how a duck is playing with a pumpkin <br> T&uacute ves como un pato est&aacute jugando con una calabaza","{""Q0"":4}","practice","99422","survey-likert","4","43358","0.0-3.0-0.1","53","1","2022-11-29 21:25:28","2df368f4e41f066fd1c82c297b4a1108","177.226.129.204","Mozilla/5.0 (Windows NT 10.0; Win64; x64) AppleWebKit/537.36 (KHTML, like Gecko) Chrome/107.0.0.0 Safari/537.36","WebKit","Chrome","107.0.0.0","Windows","10.0","[0]","4","","",""
"7679","You drop a rock on a phone <br> T&uacute tiras una piedra a un tel&eacutefono","{""Q0"":4}","practice","99422","survey-likert","5","51042","0.0-3.0-0.2","53","1","2022-11-29 21:25:28","2df368f4e41f066fd1c82c297b4a1108","177.226.129.204","Mozilla/5.0 (Windows NT 10.0; Win64; x64) AppleWebKit/537.36 (KHTML, like Gecko) Chrome/107.0.0.0 Safari/537.36","WebKit","Chrome","107.0.0.0","Windows","10.0","[0]","4","","",""
"10626","You see how a teacher is drawing a picture <br> T&uacute ves como un maestro pinta una foto","{""Q0"":4}","practice","99422","survey-likert","6","61674","0.0-3.0-0.3","53","1","2022-11-29 21:25:28","2df368f4e41f066fd1c82c297b4a1108","177.226.129.204","Mozilla/5.0 (Windows NT 10.0; Win64; x64) AppleWebKit/537.36 (KHTML, like Gecko) Chrome/107.0.0.0 Safari/537.36","WebKit","Chrome","107.0.0.0","Windows","10.0","[0]","4","","",""
"8033","You see how a tiger is playing with a goose <br> T&uacute ves como un le&oacuten come una pizza","{""Q0"":0}","practice","99422","survey-likert","7","69713","0.0-3.0-0.4","53","1","2022-11-29 21:25:28","2df368f4e41f066fd1c82c297b4a1108","177.226.129.204","Mozilla/5.0 (Windows NT 10.0; Win64; x64) AppleWebKit/537.36 (KHTML, like Gecko) Chrome/107.0.0.0 Safari/537.36","WebKit","Chrome","107.0.0.0","Windows","10.0","[0]","0","","",""
"56055","You see how a tiger is playing with a goose <br> T&uacute ves como un le&oacuten come una pizza","{""Q0"":""gooze in spanish is ganso""}","practice_low_rate","99422","survey-text","8","125780","0.0-3.0-1.4-0.4","53","1","2022-11-29 21:25:28","2df368f4e41f066fd1c82c297b4a1108","177.226.129.204","Mozilla/5.0 (Windows NT 10.0; Win64; x64) AppleWebKit/537.36 (KHTML, like Gecko) Chrome/107.0.0.0 Safari/537.36","WebKit","Chrome","107.0.0.0","Windows","10.0","","","5","",""
"12650","You drop a bowling ball on a mircrowave <br> T&uacute tiras una bola de boliche a un horno","{""Q0"":4}","practice","99422","survey-likert","9","138432","0.0-3.0-0.5","53","1","2022-11-29 21:25:28","2df368f4e41f066fd1c82c297b4a1108","177.226.129.204","Mozilla/5.0 (Windows NT 10.0; Win64; x64) AppleWebKit/537.36 (KHTML, like Gecko) Chrome/107.0.0.0 Safari/537.36","WebKit","Chrome","107.0.0.0","Windows","10.0","[0]","4","","",""
"4633","<p style=""font-size:20px;"">You have now completed the practice session! </p>
        <p style=""font-size:20px;"">You will now move on to the main experiment. </p>
        <p style=""font-size:20px;"">Please click the button below to continue. </p>","0","movetoexp","99422","html-button-response","10","143071","0.0-4.0","53","1","2022-11-29 21:25:28","2df368f4e41f066fd1c82c297b4a1108","177.226.129.204","Mozilla/5.0 (Windows NT 10.0; Win64; x64) AppleWebKit/537.36 (KHTML, like Gecko) Chrome/107.0.0.0 Safari/537.36","WebKit","Chrome","107.0.0.0","Windows","10.0","","","","",""
"6621","You see how a postman is driving a car <br> T&uacute ves como un cartero est&aacute conduciendo un coche","{""Q0"":4}","trial","99422","survey-likert","11","149695","0.0-5.0-0.0","53","1","2022-11-29 21:25:28","2df368f4e41f066fd1c82c297b4a1108","177.226.129.204","Mozilla/5.0 (Windows NT 10.0; Win64; x64) AppleWebKit/537.36 (KHTML, like Gecko) Chrome/107.0.0.0 Safari/537.36","WebKit","Chrome","107.0.0.0","Windows","10.0","[0]","","32","4",""
"8380","You drop a bowling ball on a tomato <br> T&uacute tiras una bola de boliche a un tomate","{""Q0"":4}","trial","99422","survey-likert","12","158081","0.0-5.0-0.1","53","1","2022-11-29 21:25:28","2df368f4e41f066fd1c82c297b4a1108","177.226.129.204","Mozilla/5.0 (Windows NT 10.0; Win64; x64) AppleWebKit/537.36 (KHTML, like Gecko) Chrome/107.0.0.0 Safari/537.36","WebKit","Chrome","107.0.0.0","Windows","10.0","[0]","","23","4",""
"11867","You see how a woman is paying with a debit card <br> T&uacute ves como una mujer est&aacute pagando con una tarjeta de d&eacutebito","{""Q0"":4}","trial","99422","survey-likert","13","169954","0.0-5.0-0.2","53","1","2022-11-29 21:25:28","2df368f4e41f066fd1c82c297b4a1108","177.226.129.204","Mozilla/5.0 (Windows NT 10.0; Win64; x64) AppleWebKit/537.36 (KHTML, like Gecko) Chrome/107.0.0.0 Safari/537.36","WebKit","Chrome","107.0.0.0","Windows","10.0","[0]","","64","4",""
"6138","You see how a boy is peeling a banana <br> T&uacute ves como un ni&ntildeo est&aacute pelando una banana","{""Q0"":4}","trial","99422","survey-likert","14","176098","0.0-5.0-0.3","53","1","2022-11-29 21:25:28","2df368f4e41f066fd1c82c297b4a1108","177.226.129.204","Mozilla/5.0 (Windows NT 10.0; Win64; x64) AppleWebKit/537.36 (KHTML, like Gecko) Chrome/107.0.0.0 Safari/537.36","WebKit","Chrome","107.0.0.0","Windows","10.0","[0]","","30","4",""
"7908","You see how a man is shaving his beard <br> T&uacute ves como un hombre se est&aacute afeitando la barba","{""Q0"":4}","trial","99422","survey-likert","15","184011","0.0-5.0-0.4","53","1","2022-11-29 21:25:28","2df368f4e41f066fd1c82c297b4a1108","177.226.129.204","Mozilla/5.0 (Windows NT 10.0; Win64; x64) AppleWebKit/537.36 (KHTML, like Gecko) Chrome/107.0.0.0 Safari/537.36","WebKit","Chrome","107.0.0.0","Windows","10.0","[0]","","43","4",""
"8320","You see how a zebra is playing with a horse <br> T&uacute ves como una cebra est&aacute jugando con un caballo","{""Q0"":4}","trial","99422","survey-likert","16","192337","0.0-5.0-0.5","53","1","2022-11-29 21:25:28","2df368f4e41f066fd1c82c297b4a1108","177.226.129.204","Mozilla/5.0 (Windows NT 10.0; Win64; x64) AppleWebKit/537.36 (KHTML, like Gecko) Chrome/107.0.0.0 Safari/537.36","WebKit","Chrome","107.0.0.0","Windows","10.0","[0]","","66","4",""
"6701","You drop a ring on the newspaper <br> T&uacute tiras un anillo al peri&oacutedico","{""Q0"":4}","trial","99422","survey-likert","17","199043","0.0-5.0-0.6","53","1","2022-11-29 21:25:28","2df368f4e41f066fd1c82c297b4a1108","177.226.129.204","Mozilla/5.0 (Windows NT 10.0; Win64; x64) AppleWebKit/537.36 (KHTML, like Gecko) Chrome/107.0.0.0 Safari/537.36","WebKit","Chrome","107.0.0.0","Windows","10.0","[0]","","41","4",""
"7372","You drop a bowling ball on an iPAD <br> T&uacute tiras una bola de boliche a un iPad","{""Q0"":4}","trial","99422","survey-likert","18","206422","0.0-5.0-0.7","53","1","2022-11-29 21:25:28","2df368f4e41f066fd1c82c297b4a1108","177.226.129.204","Mozilla/5.0 (Windows NT 10.0; Win64; x64) AppleWebKit/537.36 (KHTML, like Gecko) Chrome/107.0.0.0 Safari/537.36","WebKit","Chrome","107.0.0.0","Windows","10.0","[0]","","12","4",""
"7407","You see how a kitten is playing in the sandbox <br> T&uacute ves como un gatito est&aacute jugando en la caja de arena","{""Q0"":4}","trial","99422","survey-likert","19","213835","0.0-5.0-0.8","53","1","2022-11-29 21:25:28","2df368f4e41f066fd1c82c297b4a1108","177.226.129.204","Mozilla/5.0 (Windows NT 10.0; Win64; x64) AppleWebKit/537.36 (KHTML, like Gecko) Chrome/107.0.0.0 Safari/537.36","WebKit","Chrome","107.0.0.0","Windows","10.0","[0]","","52","4",""
"6470","You see how a musician is playing a guitar <br> T&uacute ves como un m&uacutesico est&aacute tocando la guitarra","{""Q0"":4}","trial","99422","survey-likert","20","220312","0.0-5.0-0.9","53","1","2022-11-29 21:25:28","2df368f4e41f066fd1c82c297b4a1108","177.226.129.204","Mozilla/5.0 (Windows NT 10.0; Win64; x64) AppleWebKit/537.36 (KHTML, like Gecko) Chrome/107.0.0.0 Safari/537.36","WebKit","Chrome","107.0.0.0","Windows","10.0","[0]","","27","4",""
"7123","You see how a dentist is drinking a can of cola <br> T&uacute ves como un dentista est&aacute bebiendo una lata de cola","{""Q0"":4}","trial","99422","survey-likert","21","227441","0.0-5.0-0.10","53","1","2022-11-29 21:25:28","2df368f4e41f066fd1c82c297b4a1108","177.226.129.204","Mozilla/5.0 (Windows NT 10.0; Win64; x64) AppleWebKit/537.36 (KHTML, like Gecko) Chrome/107.0.0.0 Safari/537.36","WebKit","Chrome","107.0.0.0","Windows","10.0","[0]","","47","4",""
"8106","You drop a bowling ball on an iPhone <br> T&uacute tiras una bola de boliche a un iPhone","{""Q0"":4}","trial","99422","survey-likert","22","235552","0.0-5.0-0.11","53","1","2022-11-29 21:25:28","2df368f4e41f066fd1c82c297b4a1108","177.226.129.204","Mozilla/5.0 (Windows NT 10.0; Win64; x64) AppleWebKit/537.36 (KHTML, like Gecko) Chrome/107.0.0.0 Safari/537.36","WebKit","Chrome","107.0.0.0","Windows","10.0","[0]","","13","4",""
"13315","You drop a bowling ball on a chocolate muffin <br> T&uacute tiras una bola de boliche a una magdalena de chocolate","{""Q0"":4}","trial","99422","survey-likert","23","248872","0.0-5.0-0.12","53","1","2022-11-29 21:25:28","2df368f4e41f066fd1c82c297b4a1108","177.226.129.204","Mozilla/5.0 (Windows NT 10.0; Win64; x64) AppleWebKit/537.36 (KHTML, like Gecko) Chrome/107.0.0.0 Safari/537.36","WebKit","Chrome","107.0.0.0","Windows","10.0","[0]","","16","4",""
"15742","You see how a man is boiling potatoes <br> T&uacute ves a un hombre est&aacute hirviendo papas","{""Q0"":3}","trial","99422","survey-likert","24","264620","0.0-5.0-0.13","53","1","2022-11-29 21:25:28","2df368f4e41f066fd1c82c297b4a1108","177.226.129.204","Mozilla/5.0 (Windows NT 10.0; Win64; x64) AppleWebKit/537.36 (KHTML, like Gecko) Chrome/107.0.0.0 Safari/537.36","WebKit","Chrome","107.0.0.0","Windows","10.0","[0]","","46","3",""
"14860","You drop a bowling ball on glasses <br> T&uacute tiras una bola de boliche a unas gafas","{""Q0"":4}","trial","99422","survey-likert","25","279487","0.0-5.0-0.14","53","1","2022-11-29 21:25:28","2df368f4e41f066fd1c82c297b4a1108","177.226.129.204","Mozilla/5.0 (Windows NT 10.0; Win64; x64) AppleWebKit/537.36 (KHTML, like Gecko) Chrome/107.0.0.0 Safari/537.36","WebKit","Chrome","107.0.0.0","Windows","10.0","[0]","","9","4",""
"14499","You see how a woman is taking money out of a wallet <br> T&uacute ves como una mujer est&aacute sacando dinero de su billetera","{""Q0"":3}","trial","99422","survey-likert","26","293992","0.0-5.0-0.15","53","1","2022-11-29 21:25:28","2df368f4e41f066fd1c82c297b4a1108","177.226.129.204","Mozilla/5.0 (Windows NT 10.0; Win64; x64) AppleWebKit/537.36 (KHTML, like Gecko) Chrome/107.0.0.0 Safari/537.36","WebKit","Chrome","107.0.0.0","Windows","10.0","[0]","","44","3",""
"13485","You see how a parrot is eating an apple <br> T&uacute ves como un loro est&aacute comiendo una manzana","{""Q0"":4}","trial","99422","survey-likert","27","307484","0.0-5.0-0.16","53","1","2022-11-29 21:25:28","2df368f4e41f066fd1c82c297b4a1108","177.226.129.204","Mozilla/5.0 (Windows NT 10.0; Win64; x64) AppleWebKit/537.36 (KHTML, like Gecko) Chrome/107.0.0.0 Safari/537.36","WebKit","Chrome","107.0.0.0","Windows","10.0","[0]","","58","4",""
"7241","You see how a police officer is talking on the phone <br> T&uacute ves como un polic&iacutea est&aacute hablando por el tel&eacutefono","{""Q0"":4}","trial","99422","survey-likert","28","314730","0.0-5.0-0.17","53","1","2022-11-29 21:25:28","2df368f4e41f066fd1c82c297b4a1108","177.226.129.204","Mozilla/5.0 (Windows NT 10.0; Win64; x64) AppleWebKit/537.36 (KHTML, like Gecko) Chrome/107.0.0.0 Safari/537.36","WebKit","Chrome","107.0.0.0","Windows","10.0","[0]","","62","4",""
"7089","You see how a student is writing on a board <br> T&uacute ves como un estudiante est&aacute escribiendo en la pizarra","{""Q0"":4}","trial","99422","survey-likert","29","321825","0.0-5.0-0.18","53","1","2022-11-29 21:25:28","2df368f4e41f066fd1c82c297b4a1108","177.226.129.204","Mozilla/5.0 (Windows NT 10.0; Win64; x64) AppleWebKit/537.36 (KHTML, like Gecko) Chrome/107.0.0.0 Safari/537.36","WebKit","Chrome","107.0.0.0","Windows","10.0","[0]","","50","4",""
"7028","You drop a bowling ball on a piece of sushi <br> T&uacute tiras una bola de boliche a un pedazo de sushi","{""Q0"":4}","trial","99422","survey-likert","30","328858","0.0-5.0-0.19","53","1","2022-11-29 21:25:28","2df368f4e41f066fd1c82c297b4a1108","177.226.129.204","Mozilla/5.0 (Windows NT 10.0; Win64; x64) AppleWebKit/537.36 (KHTML, like Gecko) Chrome/107.0.0.0 Safari/537.36","WebKit","Chrome","107.0.0.0","Windows","10.0","[0]","","21","4",""
"21052","You drop a remote on the rug <br> T&uacute tiras un control remoto a la alfombra","{""Q0"":3}","trial","99422","survey-likert","31","349916","0.0-5.0-0.20","53","1","2022-11-29 21:25:28","2df368f4e41f066fd1c82c297b4a1108","177.226.129.204","Mozilla/5.0 (Windows NT 10.0; Win64; x64) AppleWebKit/537.36 (KHTML, like Gecko) Chrome/107.0.0.0 Safari/537.36","WebKit","Chrome","107.0.0.0","Windows","10.0","[0]","","39","3",""
"9390","You see how a donkey is drinking water <br> T&uacute ves como un burro est&aacute bebiendo agua","{""Q0"":4}","trial","99422","survey-likert","32","359312","0.0-5.0-0.21","53","1","2022-11-29 21:25:28","2df368f4e41f066fd1c82c297b4a1108","177.226.129.204","Mozilla/5.0 (Windows NT 10.0; Win64; x64) AppleWebKit/537.36 (KHTML, like Gecko) Chrome/107.0.0.0 Safari/537.36","WebKit","Chrome","107.0.0.0","Windows","10.0","[0]","","45","4",""
"5838","You drop a bowling ball on a cracker <br> T&uacute tiras una bola de boliche a una galleta","{""Q0"":4}","trial","99422","survey-likert","33","365156","0.0-5.0-0.22","53","1","2022-11-29 21:25:28","2df368f4e41f066fd1c82c297b4a1108","177.226.129.204","Mozilla/5.0 (Windows NT 10.0; Win64; x64) AppleWebKit/537.36 (KHTML, like Gecko) Chrome/107.0.0.0 Safari/537.36","WebKit","Chrome","107.0.0.0","Windows","10.0","[0]","","4","4",""
"5979","You drop a bowling ball on a porcelain figure <br> T&uacute tiras una bola de boliche a una figura de porcelana","{""Q0"":4}","trial","99422","survey-likert","34","371141","0.0-5.0-0.23","53","1","2022-11-29 21:25:28","2df368f4e41f066fd1c82c297b4a1108","177.226.129.204","Mozilla/5.0 (Windows NT 10.0; Win64; x64) AppleWebKit/537.36 (KHTML, like Gecko) Chrome/107.0.0.0 Safari/537.36","WebKit","Chrome","107.0.0.0","Windows","10.0","[0]","","1","4",""
"17009","You drop a bowling ball on a ceramic plate <br> T&uacute tiras una bola de boliche a un plato de cer&aacutemica","{""Q0"":4}","trial","99422","survey-likert","35","388157","0.0-5.0-0.24","53","1","2022-11-29 21:25:28","2df368f4e41f066fd1c82c297b4a1108","177.226.129.204","Mozilla/5.0 (Windows NT 10.0; Win64; x64) AppleWebKit/537.36 (KHTML, like Gecko) Chrome/107.0.0.0 Safari/537.36","WebKit","Chrome","107.0.0.0","Windows","10.0","[0]","","19","4",""
"7538","You drop a bowling ball on a hat <br> T&uacute tiras una bola de boliche a una gorra","{""Q0"":4}","trial","99422","survey-likert","36","395701","0.0-5.0-0.25","53","1","2022-11-29 21:25:28","2df368f4e41f066fd1c82c297b4a1108","177.226.129.204","Mozilla/5.0 (Windows NT 10.0; Win64; x64) AppleWebKit/537.36 (KHTML, like Gecko) Chrome/107.0.0.0 Safari/537.36","WebKit","Chrome","107.0.0.0","Windows","10.0","[0]","","10","4",""
"8519","You see how a cat is drinking water from a bowl <br> T&uacute ves como un gato est&aacute bebiendo agua de un cuenco","{""Q0"":4}","trial","99422","survey-likert","37","404228","0.0-5.0-0.26","53","1","2022-11-29 21:25:28","2df368f4e41f066fd1c82c297b4a1108","177.226.129.204","Mozilla/5.0 (Windows NT 10.0; Win64; x64) AppleWebKit/537.36 (KHTML, like Gecko) Chrome/107.0.0.0 Safari/537.36","WebKit","Chrome","107.0.0.0","Windows","10.0","[0]","","28","4",""
"4813","You drop a thermometer on the box <br> T&uacute tiras un term&oacutemetro a la caja","{""Q0"":4}","trial","99422","survey-likert","38","409046","0.0-5.0-0.27","53","1","2022-11-29 21:25:28","2df368f4e41f066fd1c82c297b4a1108","177.226.129.204","Mozilla/5.0 (Windows NT 10.0; Win64; x64) AppleWebKit/537.36 (KHTML, like Gecko) Chrome/107.0.0.0 Safari/537.36","WebKit","Chrome","107.0.0.0","Windows","10.0","[0]","","70","4",""
"6546","You drop a bowling ball on an egg flan <br> T&uacute tiras una bola de boliche a un flan","{""Q0"":4}","trial","99422","survey-likert","39","415598","0.0-5.0-0.28","53","1","2022-11-29 21:25:28","2df368f4e41f066fd1c82c297b4a1108","177.226.129.204","Mozilla/5.0 (Windows NT 10.0; Win64; x64) AppleWebKit/537.36 (KHTML, like Gecko) Chrome/107.0.0.0 Safari/537.36","WebKit","Chrome","107.0.0.0","Windows","10.0","[0]","","7","4",""
"9187","You drop a bowling ball on a blackberry <br> T&uacute tiras una bola de boliche a una mora","{""Q0"":4}","trial","99422","survey-likert","40","424791","0.0-5.0-0.29","53","1","2022-11-29 21:25:28","2df368f4e41f066fd1c82c297b4a1108","177.226.129.204","Mozilla/5.0 (Windows NT 10.0; Win64; x64) AppleWebKit/537.36 (KHTML, like Gecko) Chrome/107.0.0.0 Safari/537.36","WebKit","Chrome","107.0.0.0","Windows","10.0","[0]","","8","4",""
"5942","You drop a bowling ball on a mirror <br> T&uacute tiras una bola de boliche a un espejo","{""Q0"":4}","trial","99422","survey-likert","41","430739","0.0-5.0-0.30","53","1","2022-11-29 21:25:28","2df368f4e41f066fd1c82c297b4a1108","177.226.129.204","Mozilla/5.0 (Windows NT 10.0; Win64; x64) AppleWebKit/537.36 (KHTML, like Gecko) Chrome/107.0.0.0 Safari/537.36","WebKit","Chrome","107.0.0.0","Windows","10.0","[0]","","15","4",""
"5182","You drop a towel on the TV <br> T&uacute tiras una toalla a la televisi&oacuten","{""Q0"":4}","trial","99422","survey-likert","42","435928","0.0-5.0-0.31","53","1","2022-11-29 21:25:28","2df368f4e41f066fd1c82c297b4a1108","177.226.129.204","Mozilla/5.0 (Windows NT 10.0; Win64; x64) AppleWebKit/537.36 (KHTML, like Gecko) Chrome/107.0.0.0 Safari/537.36","WebKit","Chrome","107.0.0.0","Windows","10.0","[0]","","53","4",""
"8463","You see how a thief is stealing a wallet <br> T&uacute ves como un ladr&oacuten est&aacute robando una billetera","{""Q0"":4}","trial","99422","survey-likert","43","444396","0.0-5.0-0.32","53","1","2022-11-29 21:25:28","2df368f4e41f066fd1c82c297b4a1108","177.226.129.204","Mozilla/5.0 (Windows NT 10.0; Win64; x64) AppleWebKit/537.36 (KHTML, like Gecko) Chrome/107.0.0.0 Safari/537.36","WebKit","Chrome","107.0.0.0","Windows","10.0","[0]","","68","4",""
"4627","You drop a keyboard on the bed <br> T&uacute tiras un teclado a la cama","{""Q0"":4}","trial","99422","survey-likert","44","449029","0.0-5.0-0.33","53","1","2022-11-29 21:25:28","2df368f4e41f066fd1c82c297b4a1108","177.226.129.204","Mozilla/5.0 (Windows NT 10.0; Win64; x64) AppleWebKit/537.36 (KHTML, like Gecko) Chrome/107.0.0.0 Safari/537.36","WebKit","Chrome","107.0.0.0","Windows","10.0","[0]","","36","4",""
"5553","You see how a mouse is eating cheese <br> T&uacute ves como el rat&oacuten est&aacute comiendo queso","{""Q0"":4}","trial","99422","survey-likert","45","454588","0.0-5.0-0.34","53","1","2022-11-29 21:25:28","2df368f4e41f066fd1c82c297b4a1108","177.226.129.204","Mozilla/5.0 (Windows NT 10.0; Win64; x64) AppleWebKit/537.36 (KHTML, like Gecko) Chrome/107.0.0.0 Safari/537.36","WebKit","Chrome","107.0.0.0","Windows","10.0","[0]","","56","4",""
"20137","You drop a bowling ball on a light bulb <br> T&uacute tiras una bola de boliche a una bombilla","{""Q0"":4}","trial","99422","survey-likert","46","474731","0.0-5.0-0.35","53","1","2022-11-29 21:25:28","2df368f4e41f066fd1c82c297b4a1108","177.226.129.204","Mozilla/5.0 (Windows NT 10.0; Win64; x64) AppleWebKit/537.36 (KHTML, like Gecko) Chrome/107.0.0.0 Safari/537.36","WebKit","Chrome","107.0.0.0","Windows","10.0","[0]","","14","4",""
"9323","You see how a photographer is taking a photo of a lion <br> T&uacute ves como un fot&oacutegrafo est&aacute tomando una foto de un le&oacuten","{""Q0"":4}","trial","99422","survey-likert","47","484060","0.0-5.0-0.36","53","1","2022-11-29 21:25:28","2df368f4e41f066fd1c82c297b4a1108","177.226.129.204","Mozilla/5.0 (Windows NT 10.0; Win64; x64) AppleWebKit/537.36 (KHTML, like Gecko) Chrome/107.0.0.0 Safari/537.36","WebKit","Chrome","107.0.0.0","Windows","10.0","[0]","","72","4",""
"5436","You drop a cabbage on the table <br> T&uacute tiras una col a la mesa","{""Q0"":4}","trial","99422","survey-likert","48","489503","0.0-5.0-0.37","53","1","2022-11-29 21:25:28","2df368f4e41f066fd1c82c297b4a1108","177.226.129.204","Mozilla/5.0 (Windows NT 10.0; Win64; x64) AppleWebKit/537.36 (KHTML, like Gecko) Chrome/107.0.0.0 Safari/537.36","WebKit","Chrome","107.0.0.0","Windows","10.0","[0]","","35","4",""
"10941","You drop a fork on the plate <br> T&uacute tiras un tenedor al plato","{""Q0"":4}","trial","99422","survey-likert","49","500449","0.0-5.0-0.38","53","1","2022-11-29 21:25:28","2df368f4e41f066fd1c82c297b4a1108","177.226.129.204","Mozilla/5.0 (Windows NT 10.0; Win64; x64) AppleWebKit/537.36 (KHTML, like Gecko) Chrome/107.0.0.0 Safari/537.36","WebKit","Chrome","107.0.0.0","Windows","10.0","[0]","","26","4",""
"8957","You see how a giraffe is playing with a zebra <br> T&uacute ves como una jirafa est&aacute jugando con una cebra","{""Q0"":4}","trial","99422","survey-likert","50","509413","0.0-5.0-0.39","53","1","2022-11-29 21:25:28","2df368f4e41f066fd1c82c297b4a1108","177.226.129.204","Mozilla/5.0 (Windows NT 10.0; Win64; x64) AppleWebKit/537.36 (KHTML, like Gecko) Chrome/107.0.0.0 Safari/537.36","WebKit","Chrome","107.0.0.0","Windows","10.0","[0]","","65","4",""
"9700","You drop a bowling ball on an empty can of beer <br> T&uacute tiras una bola de boliche a una lata de cerveza vac&iacutea","{""Q0"":4}","trial","99422","survey-likert","51","519120","0.0-5.0-0.40","53","1","2022-11-29 21:25:28","2df368f4e41f066fd1c82c297b4a1108","177.226.129.204","Mozilla/5.0 (Windows NT 10.0; Win64; x64) AppleWebKit/537.36 (KHTML, like Gecko) Chrome/107.0.0.0 Safari/537.36","WebKit","Chrome","107.0.0.0","Windows","10.0","[0]","","3","4",""
"10210","You see how a pilot is reading a book <br> T&uacute ves como un piloto est&aacute leyendo un libro","{""Q0"":4}","trial","99422","survey-likert","52","529337","0.0-5.0-0.41","53","1","2022-11-29 21:25:28","2df368f4e41f066fd1c82c297b4a1108","177.226.129.204","Mozilla/5.0 (Windows NT 10.0; Win64; x64) AppleWebKit/537.36 (KHTML, like Gecko) Chrome/107.0.0.0 Safari/537.36","WebKit","Chrome","107.0.0.0","Windows","10.0","[0]","","61","4",""
"5861","You drop a watch on the laptop <br> T&uacute tiras un reloj al port&aacutetil","{""Q0"":4}","trial","99422","survey-likert","53","535206","0.0-5.0-0.42","53","1","2022-11-29 21:25:28","2df368f4e41f066fd1c82c297b4a1108","177.226.129.204","Mozilla/5.0 (Windows NT 10.0; Win64; x64) AppleWebKit/537.36 (KHTML, like Gecko) Chrome/107.0.0.0 Safari/537.36","WebKit","Chrome","107.0.0.0","Windows","10.0","[0]","","37","4",""
"6616","You see how a man is playing with a cat <br> T&uacute ves como un hombre est&aacute jugando con un gato","{""Q0"":4}","trial","99422","survey-likert","54","541829","0.0-5.0-0.43","53","1","2022-11-29 21:25:28","2df368f4e41f066fd1c82c297b4a1108","177.226.129.204","Mozilla/5.0 (Windows NT 10.0; Win64; x64) AppleWebKit/537.36 (KHTML, like Gecko) Chrome/107.0.0.0 Safari/537.36","WebKit","Chrome","107.0.0.0","Windows","10.0","[0]","","67","4",""
"6433","You drop a bowling ball on a paper cup <br> T&uacute tiras una bola de boliche a un vaso de papel","{""Q0"":4}","trial","99422","survey-likert","55","548270","0.0-5.0-0.44","53","1","2022-11-29 21:25:28","2df368f4e41f066fd1c82c297b4a1108","177.226.129.204","Mozilla/5.0 (Windows NT 10.0; Win64; x64) AppleWebKit/537.36 (KHTML, like Gecko) Chrome/107.0.0.0 Safari/537.36","WebKit","Chrome","107.0.0.0","Windows","10.0","[0]","","24","4",""
"8123","You drop a toothbrush on the sponge <br> T&uacute tiras un cepillo de dientes en la esponja","{""Q0"":4}","trial","99422","survey-likert","56","556399","0.0-5.0-0.45","53","1","2022-11-29 21:25:28","2df368f4e41f066fd1c82c297b4a1108","177.226.129.204","Mozilla/5.0 (Windows NT 10.0; Win64; x64) AppleWebKit/537.36 (KHTML, like Gecko) Chrome/107.0.0.0 Safari/537.36","WebKit","Chrome","107.0.0.0","Windows","10.0","[0]","","25","4",""
"5559","You see how a puppy is playing with a ball <br> T&uacute ves como un cachorro est&aacute jugando con una pelota","{""Q0"":4}","trial","99422","survey-likert","57","561964","0.0-5.0-0.46","53","1","2022-11-29 21:25:28","2df368f4e41f066fd1c82c297b4a1108","177.226.129.204","Mozilla/5.0 (Windows NT 10.0; Win64; x64) AppleWebKit/537.36 (KHTML, like Gecko) Chrome/107.0.0.0 Safari/537.36","WebKit","Chrome","107.0.0.0","Windows","10.0","[0]","","34","4",""
"9003","You see how a butterfly is sitting on a flower <br> T&uacute ves como una mariposa est&aacute reposando en una flor","{""Q0"":4}","trial","99422","survey-likert","58","570974","0.0-5.0-0.47","53","1","2022-11-29 21:25:28","2df368f4e41f066fd1c82c297b4a1108","177.226.129.204","Mozilla/5.0 (Windows NT 10.0; Win64; x64) AppleWebKit/537.36 (KHTML, like Gecko) Chrome/107.0.0.0 Safari/537.36","WebKit","Chrome","107.0.0.0","Windows","10.0","[0]","","59","4",""
"9427","You see how a president is writing in the notebook <br> T&uacute ves como un presidente est&aacute escribiendo en la libreta","{""Q0"":4}","trial","99422","survey-likert","59","580408","0.0-5.0-0.48","53","1","2022-11-29 21:25:28","2df368f4e41f066fd1c82c297b4a1108","177.226.129.204","Mozilla/5.0 (Windows NT 10.0; Win64; x64) AppleWebKit/537.36 (KHTML, like Gecko) Chrome/107.0.0.0 Safari/537.36","WebKit","Chrome","107.0.0.0","Windows","10.0","[0]","","63","4",""
"8166","You drop a bowling ball on a rice cake <br> T&uacute tiras una bola de boliche a una tortita de arroz","{""Q0"":4}","trial","99422","survey-likert","60","588581","0.0-5.0-0.49","53","1","2022-11-29 21:25:28","2df368f4e41f066fd1c82c297b4a1108","177.226.129.204","Mozilla/5.0 (Windows NT 10.0; Win64; x64) AppleWebKit/537.36 (KHTML, like Gecko) Chrome/107.0.0.0 Safari/537.36","WebKit","Chrome","107.0.0.0","Windows","10.0","[0]","","18","4",""
"7002","You see how a horse is chewing hay <br> T&uacute ves como un caballo est&aacute masticando el heno","{""Q0"":4}","trial","99422","survey-likert","61","595589","0.0-5.0-0.50","53","1","2022-11-29 21:25:28","2df368f4e41f066fd1c82c297b4a1108","177.226.129.204","Mozilla/5.0 (Windows NT 10.0; Win64; x64) AppleWebKit/537.36 (KHTML, like Gecko) Chrome/107.0.0.0 Safari/537.36","WebKit","Chrome","107.0.0.0","Windows","10.0","[0]","","55","4",""
"8318","You see how a hairdresser is taking scissors <br> T&uacute ves como una peluquera est&aacute agarrando las tijeras","{""Q0"":4}","trial","99422","survey-likert","62","603914","0.0-5.0-0.51","53","1","2022-11-29 21:25:28","2df368f4e41f066fd1c82c297b4a1108","177.226.129.204","Mozilla/5.0 (Windows NT 10.0; Win64; x64) AppleWebKit/537.36 (KHTML, like Gecko) Chrome/107.0.0.0 Safari/537.36","WebKit","Chrome","107.0.0.0","Windows","10.0","[0]","","60","4",""
"5574","You see how a panda is resting on a tree <br> T&uacute ves como un panda est&aacute descansando en un &aacuterbol","{""Q0"":4}","trial","99422","survey-likert","63","609494","0.0-5.0-0.52","53","1","2022-11-29 21:25:28","2df368f4e41f066fd1c82c297b4a1108","177.226.129.204","Mozilla/5.0 (Windows NT 10.0; Win64; x64) AppleWebKit/537.36 (KHTML, like Gecko) Chrome/107.0.0.0 Safari/537.36","WebKit","Chrome","107.0.0.0","Windows","10.0","[0]","","57","4",""
"8533","You drop a bowling ball on an egg <br> T&uacute tiras una bola de boliche a un huevo","{""Q0"":4}","trial","99422","survey-likert","64","618033","0.0-5.0-0.53","53","1","2022-11-29 21:25:28","2df368f4e41f066fd1c82c297b4a1108","177.226.129.204","Mozilla/5.0 (Windows NT 10.0; Win64; x64) AppleWebKit/537.36 (KHTML, like Gecko) Chrome/107.0.0.0 Safari/537.36","WebKit","Chrome","107.0.0.0","Windows","10.0","[0]","","6","4",""
"6887","You see how a teenage girl is playing the piano <br> T&uacute ves como una ni&ntildea adolescente est&aacute tocando el piano","{""Q0"":4}","trial","99422","survey-likert","65","624927","0.0-5.0-0.54","53","1","2022-11-29 21:25:28","2df368f4e41f066fd1c82c297b4a1108","177.226.129.204","Mozilla/5.0 (Windows NT 10.0; Win64; x64) AppleWebKit/537.36 (KHTML, like Gecko) Chrome/107.0.0.0 Safari/537.36","WebKit","Chrome","107.0.0.0","Windows","10.0","[0]","","54","4",""
"4944","You see how a cook is taking a knife <br> T&uacute ves como un cocinero est&aacute agarrando un cuchillo","{""Q0"":4}","trial","99422","survey-likert","66","629879","0.0-5.0-0.55","53","1","2022-11-29 21:25:28","2df368f4e41f066fd1c82c297b4a1108","177.226.129.204","Mozilla/5.0 (Windows NT 10.0; Win64; x64) AppleWebKit/537.36 (KHTML, like Gecko) Chrome/107.0.0.0 Safari/537.36","WebKit","Chrome","107.0.0.0","Windows","10.0","[0]","","71","4",""
"17930","You drop a bowling ball on a tile <br> T&uacute tiras una bola de boliche a una baldosa","{""Q0"":4}","trial","99422","survey-likert","67","647816","0.0-5.0-0.56","53","1","2022-11-29 21:25:28","2df368f4e41f066fd1c82c297b4a1108","177.226.129.204","Mozilla/5.0 (Windows NT 10.0; Win64; x64) AppleWebKit/537.36 (KHTML, like Gecko) Chrome/107.0.0.0 Safari/537.36","WebKit","Chrome","107.0.0.0","Windows","10.0","[0]","","22","4",""
"5353","You drop a bowling ball on a piece of cake <br> T&uacute tiras una bola de boliche a un trozo de pastel","{""Q0"":4}","trial","99422","survey-likert","68","653176","0.0-5.0-0.57","53","1","2022-11-29 21:25:28","2df368f4e41f066fd1c82c297b4a1108","177.226.129.204","Mozilla/5.0 (Windows NT 10.0; Win64; x64) AppleWebKit/537.36 (KHTML, like Gecko) Chrome/107.0.0.0 Safari/537.36","WebKit","Chrome","107.0.0.0","Windows","10.0","[0]","","2","4",""
"19511","You drop a cushion on the magazine <br> T&uacute tiras un coj&iacuten a la revista","{""Q0"":4}","trial","99422","survey-likert","69","672694","0.0-5.0-0.58","53","1","2022-11-29 21:25:28","2df368f4e41f066fd1c82c297b4a1108","177.226.129.204","Mozilla/5.0 (Windows NT 10.0; Win64; x64) AppleWebKit/537.36 (KHTML, like Gecko) Chrome/107.0.0.0 Safari/537.36","WebKit","Chrome","107.0.0.0","Windows","10.0","[0]","","38","4",""
"7371","You drop a bowling ball on a strawberry <br> T&uacute tiras una bola de boliche a una fresa","{""Q0"":4}","trial","99422","survey-likert","70","680072","0.0-5.0-0.59","53","1","2022-11-29 21:25:28","2df368f4e41f066fd1c82c297b4a1108","177.226.129.204","Mozilla/5.0 (Windows NT 10.0; Win64; x64) AppleWebKit/537.36 (KHTML, like Gecko) Chrome/107.0.0.0 Safari/537.36","WebKit","Chrome","107.0.0.0","Windows","10.0","[0]","","20","4",""
"5662","You see how an owl is sitting on the branch <br> T&uacute ves como un b&uacuteho est&aacute reposando en una rama","{""Q0"":4}","trial","99422","survey-likert","71","685742","0.0-5.0-0.60","53","1","2022-11-29 21:25:28","2df368f4e41f066fd1c82c297b4a1108","177.226.129.204","Mozilla/5.0 (Windows NT 10.0; Win64; x64) AppleWebKit/537.36 (KHTML, like Gecko) Chrome/107.0.0.0 Safari/537.36","WebKit","Chrome","107.0.0.0","Windows","10.0","[0]","","69","4",""
"5771","You see how an actress is taking a microphone <br> T&uacute ves como una actriz est&aacute agarrando el micr&oacutefono","{""Q0"":4}","trial","99422","survey-likert","72","691520","0.0-5.0-0.61","53","1","2022-11-29 21:25:28","2df368f4e41f066fd1c82c297b4a1108","177.226.129.204","Mozilla/5.0 (Windows NT 10.0; Win64; x64) AppleWebKit/537.36 (KHTML, like Gecko) Chrome/107.0.0.0 Safari/537.36","WebKit","Chrome","107.0.0.0","Windows","10.0","[0]","","51","4",""
"8090","You see how an old man is hammering a nail <br> T&uacute ves como un hombre anciano est&aacute martillando un clavo","{""Q0"":4}","trial","99422","survey-likert","73","699617","0.0-5.0-0.62","53","1","2022-11-29 21:25:28","2df368f4e41f066fd1c82c297b4a1108","177.226.129.204","Mozilla/5.0 (Windows NT 10.0; Win64; x64) AppleWebKit/537.36 (KHTML, like Gecko) Chrome/107.0.0.0 Safari/537.36","WebKit","Chrome","107.0.0.0","Windows","10.0","[0]","","29","4",""
"5105","You drop a pencil on the shoe <br> T&uacute tiras un l&aacutepiz al zapato","{""Q0"":4}","trial","99422","survey-likert","74","704728","0.0-5.0-0.63","53","1","2022-11-29 21:25:28","2df368f4e41f066fd1c82c297b4a1108","177.226.129.204","Mozilla/5.0 (Windows NT 10.0; Win64; x64) AppleWebKit/537.36 (KHTML, like Gecko) Chrome/107.0.0.0 Safari/537.36","WebKit","Chrome","107.0.0.0","Windows","10.0","[0]","","40","4",""
"6534","You drop a bowling ball on a chocolate ice-cream <br> T&uacute tiras una bola de boliche a un helado de chocolate","{""Q0"":4}","trial","99422","survey-likert","75","711269","0.0-5.0-0.64","53","1","2022-11-29 21:25:28","2df368f4e41f066fd1c82c297b4a1108","177.226.129.204","Mozilla/5.0 (Windows NT 10.0; Win64; x64) AppleWebKit/537.36 (KHTML, like Gecko) Chrome/107.0.0.0 Safari/537.36","WebKit","Chrome","107.0.0.0","Windows","10.0","[0]","","11","4",""
"6232","You drop a bowling ball on a donut <br> T&uacute tiras una bola de boliche a una rosquilla","{""Q0"":4}","trial","99422","survey-likert","76","717508","0.0-5.0-0.65","53","1","2022-11-29 21:25:28","2df368f4e41f066fd1c82c297b4a1108","177.226.129.204","Mozilla/5.0 (Windows NT 10.0; Win64; x64) AppleWebKit/537.36 (KHTML, like Gecko) Chrome/107.0.0.0 Safari/537.36","WebKit","Chrome","107.0.0.0","Windows","10.0","[0]","","17","4",""
"7664","You see how an astronaut is putting on a space suit <br> T&uacute ves como un astronauta se est&aacute poniendo su traje espacial","{""Q0"":4}","trial","99422","survey-likert","77","725179","0.0-5.0-0.66","53","1","2022-11-29 21:25:28","2df368f4e41f066fd1c82c297b4a1108","177.226.129.204","Mozilla/5.0 (Windows NT 10.0; Win64; x64) AppleWebKit/537.36 (KHTML, like Gecko) Chrome/107.0.0.0 Safari/537.36","WebKit","Chrome","107.0.0.0","Windows","10.0","[0]","","33","4",""
"9906","You see how an elephant is eating a watermelon <br> T&uacute ves como un elefante est&aacute comiendo una sand&iacutea","{""Q0"":4}","trial","99422","survey-likert","78","735093","0.0-5.0-0.67","53","1","2022-11-29 21:25:28","2df368f4e41f066fd1c82c297b4a1108","177.226.129.204","Mozilla/5.0 (Windows NT 10.0; Win64; x64) AppleWebKit/537.36 (KHTML, like Gecko) Chrome/107.0.0.0 Safari/537.36","WebKit","Chrome","107.0.0.0","Windows","10.0","[0]","","31","4",""
"8080","You drop a needle on the mouse pad <br> T&uacute tiras una aguja a la alfombrilla para el rat&oacuten","{""Q0"":4}","trial","99422","survey-likert","79","743180","0.0-5.0-0.68","53","1","2022-11-29 21:25:28","2df368f4e41f066fd1c82c297b4a1108","177.226.129.204","Mozilla/5.0 (Windows NT 10.0; Win64; x64) AppleWebKit/537.36 (KHTML, like Gecko) Chrome/107.0.0.0 Safari/537.36","WebKit","Chrome","107.0.0.0","Windows","10.0","[0]","","42","4",""
"9875","You see how a nurse is taking a syringe <br> T&uacute ves como una enfermera est&aacute agarrando una jeringuilla","{""Q0"":4}","trial","99422","survey-likert","80","753066","0.0-5.0-0.69","53","1","2022-11-29 21:25:28","2df368f4e41f066fd1c82c297b4a1108","177.226.129.204","Mozilla/5.0 (Windows NT 10.0; Win64; x64) AppleWebKit/537.36 (KHTML, like Gecko) Chrome/107.0.0.0 Safari/537.36","WebKit","Chrome","107.0.0.0","Windows","10.0","[0]","","48","4",""
"8548","You drop a bowling ball on a wine glass <br> T&uacute tiras una bola de boliche a una copa de vino","{""Q0"":4}","trial","99422","survey-likert","81","761622","0.0-5.0-0.70","53","1","2022-11-29 21:25:28","2df368f4e41f066fd1c82c297b4a1108","177.226.129.204","Mozilla/5.0 (Windows NT 10.0; Win64; x64) AppleWebKit/537.36 (KHTML, like Gecko) Chrome/107.0.0.0 Safari/537.36","WebKit","Chrome","107.0.0.0","Windows","10.0","[0]","","5","4",""
"7700","You see how a doctor is taking a stethoscope <br> T&uacute ves como un doctor est&aacute agarrando un estetoscopio","{""Q0"":4}","trial","99422","survey-likert","82","769330","0.0-5.0-0.71","53","1","2022-11-29 21:25:28","2df368f4e41f066fd1c82c297b4a1108","177.226.129.204","Mozilla/5.0 (Windows NT 10.0; Win64; x64) AppleWebKit/537.36 (KHTML, like Gecko) Chrome/107.0.0.0 Safari/537.36","WebKit","Chrome","107.0.0.0","Windows","10.0","[0]","","49","4",""
"9906","
    <p style=""font-size:20px;""> You have completed the experiment portion! </p>
    <p style=""font-size:20px;""> Before you are done, we would like you to answer some basic demographic questions. </p>
    <p style=""font-size:20px;""> Note that your answers to these questions will not affect your compensation/credit. </p>
    <p style=""font-size:20px;""> Click the button below to continue.</p>
    ","0","demo","99422","html-button-response","83","779246","0.0-6.0","53","1","2022-11-29 21:25:28","2df368f4e41f066fd1c82c297b4a1108","177.226.129.204","Mozilla/5.0 (Windows NT 10.0; Win64; x64) AppleWebKit/537.36 (KHTML, like Gecko) Chrome/107.0.0.0 Safari/537.36","WebKit","Chrome","107.0.0.0","Windows","10.0","","","","",""
"12696","","{""Age"":""41"",""Gender"":""male"",""Education"":""20""}","demo","99422","survey-text","84","791953","0.0-7.0-0.0","53","1","2022-11-29 21:25:28","2df368f4e41f066fd1c82c297b4a1108","177.226.129.204","Mozilla/5.0 (Windows NT 10.0; Win64; x64) AppleWebKit/537.36 (KHTML, like Gecko) Chrome/107.0.0.0 Safari/537.36","WebKit","Chrome","107.0.0.0","Windows","10.0","","","","",""
"10295","","{""Race"":[""White/Caucasian""]}","demo","99422","survey-multi-select","85","802258","0.0-7.0-1.0","53","1","2022-11-29 21:25:28","2df368f4e41f066fd1c82c297b4a1108","177.226.129.204","Mozilla/5.0 (Windows NT 10.0; Win64; x64) AppleWebKit/537.36 (KHTML, like Gecko) Chrome/107.0.0.0 Safari/537.36","WebKit","Chrome","107.0.0.0","Windows","10.0","[0]","","","",""
"16060","","{""Latino"":""Yes"",""Alert"":""Evening""}","demo","99422","survey-multi-choice","86","818328","0.0-7.0-2.0","53","1","2022-11-29 21:25:28","2df368f4e41f066fd1c82c297b4a1108","177.226.129.204","Mozilla/5.0 (Windows NT 10.0; Win64; x64) AppleWebKit/537.36 (KHTML, like Gecko) Chrome/107.0.0.0 Safari/537.36","WebKit","Chrome","107.0.0.0","Windows","10.0","[0,1]","","","",""
"3970","","{""Q0"":""""}","demo","99422","survey-text","87","822310","0.0-7.0-3.0","53","1","2022-11-29 21:25:28","2df368f4e41f066fd1c82c297b4a1108","177.226.129.204","Mozilla/5.0 (Windows NT 10.0; Win64; x64) AppleWebKit/537.36 (KHTML, like Gecko) Chrome/107.0.0.0 Safari/537.36","WebKit","Chrome","107.0.0.0","Windows","10.0","","","","",""
"15263","<p>Thank you for participating! </p><strong>Your completion code is: CXEJB7NH. Please copy-paste this code and submit it on Prolific.</strong><p>Click <a href=""https://drive.google.com/file/d/1c70cdHFlc0AaR6RujLWLJwWkv1RbHQJY/view?usp=sharing"" target=""_blank"" rel=""noopener noreferrer"">here</a> to access the debriefing form and know more about our research. <p> Please click the button below to finish the experiment and save your data.</p> <p> IMPORTANT: Please <strong>do not leave this page </strong> without clicking the button below.</p> <p> You may close the tab/window after you click the button below.","0","","","html-button-response","88","837577","0.0-8.0","53","1","2022-11-29 21:25:28","2df368f4e41f066fd1c82c297b4a1108","177.226.129.204","Mozilla/5.0 (Windows NT 10.0; Win64; x64) AppleWebKit/537.36 (KHTML, like Gecko) Chrome/107.0.0.0 Safari/537.36","WebKit","Chrome","107.0.0.0","Windows","10.0","","","","",""
