"rt","stimulus","response","typeoftrial","subject","trial_type","trial_index","time_elapsed","internal_node_id","run_id","condition","recorded_at","source_code_version","ip","user_agent","device","browser","browser_version","platform","platform_version","question_order","practice_rating","sentence_num","rating","Experiment"
"8495","
        <p style=""font-size:20px;""> Welcome! Thank you for your interest in our study. </p>
        <p style=""font-size:20px;""> This study is being conducted by researchers at Bowdoin College.</p>
        <p style=""font-size:20px;""> In this experiment, you will be asked to rate the accuracy of English and Spanish translations.</p>
        <p style=""font-size:20px;""> The entire experiment should not last more than 20 minutes. You will be paid $3 USD for your participation. </p>
        <p style=""font-size:20px;""> Please click <a href = ""https://drive.google.com/file/d/1L92a02eEKCpaAEipmqDcBCDR7rsarqFE/view?usp=sharing"" target = ""_blank"">here</a> to read the full consent form. </p>
        <p style=""font-size:20px;""> If you agree to participate, please click the button below to continue to experiment instructions.</p>
        ","0","consent","44338","html-button-response","0","8498","0.0-0.0","38","1","2022-11-29 21:25:04","2df368f4e41f066fd1c82c297b4a1108","189.217.89.90","Mozilla/5.0 (Windows NT 10.0; Win64; x64) AppleWebKit/537.36 (KHTML, like Gecko) Chrome/107.0.0.0 Safari/537.36","WebKit","Chrome","107.0.0.0","Windows","10.0","","","","",""
"15202","","{""ID"":""5f4849b98d15cc2fb3a4d609""}","ID","44338","survey-text","1","23709","0.0-1.0","38","1","2022-11-29 21:25:04","2df368f4e41f066fd1c82c297b4a1108","189.217.89.90","Mozilla/5.0 (Windows NT 10.0; Win64; x64) AppleWebKit/537.36 (KHTML, like Gecko) Chrome/107.0.0.0 Safari/537.36","WebKit","Chrome","107.0.0.0","Windows","10.0","","","","",""
"12287","
        <p style=""font-size:20px;""> You are about to begin the practice test. </p>
        <p style=""font-size:20px;""> On each trial, you will see a sentence in English and its corresponding Spanish translation. </p>
        <p style=""font-size:20px;""> You will rate the accuracy of the translation on a scale from ""Not at all accurate"" to ""Very accurate."" </p>
        <p style=""font-size:20px;""> If you rate the translation as ""Somewhat innaccurate"" or ""Not at all accurate,"" you will be asked to provide your own translation or a reason why the translation is inaccurate. </p>
        <p style=""font-size:20px;""> Click the button below to continue to the practice session.</p>","0","instructions","44338","html-button-response","2","35998","0.0-2.0","38","1","2022-11-29 21:25:04","2df368f4e41f066fd1c82c297b4a1108","189.217.89.90","Mozilla/5.0 (Windows NT 10.0; Win64; x64) AppleWebKit/537.36 (KHTML, like Gecko) Chrome/107.0.0.0 Safari/537.36","WebKit","Chrome","107.0.0.0","Windows","10.0","","","","",""
"14367","You see how a duck is playing with a pumpkin <br> T&uacute ves como un pato est&aacute jugando con una calabaza","{""Q0"":3}","practice","44338","survey-likert","3","50367","0.0-3.0-0.0","38","1","2022-11-29 21:25:04","2df368f4e41f066fd1c82c297b4a1108","189.217.89.90","Mozilla/5.0 (Windows NT 10.0; Win64; x64) AppleWebKit/537.36 (KHTML, like Gecko) Chrome/107.0.0.0 Safari/537.36","WebKit","Chrome","107.0.0.0","Windows","10.0","[0]","3","","",""
"5101","You drop a rock on a phone <br> T&uacute tiras una piedra a un tel&eacutefono","{""Q0"":3}","practice","44338","survey-likert","4","55467","0.0-3.0-0.1","38","1","2022-11-29 21:25:04","2df368f4e41f066fd1c82c297b4a1108","189.217.89.90","Mozilla/5.0 (Windows NT 10.0; Win64; x64) AppleWebKit/537.36 (KHTML, like Gecko) Chrome/107.0.0.0 Safari/537.36","WebKit","Chrome","107.0.0.0","Windows","10.0","[0]","3","","",""
"41201","You see how a tiger is playing with a goose <br> T&uacute ves como un le&oacuten come una pizza","{""Q0"":0}","practice","44338","survey-likert","5","96670","0.0-3.0-0.2","38","1","2022-11-29 21:25:04","2df368f4e41f066fd1c82c297b4a1108","189.217.89.90","Mozilla/5.0 (Windows NT 10.0; Win64; x64) AppleWebKit/537.36 (KHTML, like Gecko) Chrome/107.0.0.0 Safari/537.36","WebKit","Chrome","107.0.0.0","Windows","10.0","[0]","0","","",""
"17623","You see how a tiger is playing with a goose <br> T&uacute ves como un le&oacuten come una pizza","{""Q0"":""Tú ves cómo el león está jugando con un ganso""}","practice_low_rate","44338","survey-text","6","114307","0.0-3.0-1.2-0.2","38","1","2022-11-29 21:25:04","2df368f4e41f066fd1c82c297b4a1108","189.217.89.90","Mozilla/5.0 (Windows NT 10.0; Win64; x64) AppleWebKit/537.36 (KHTML, like Gecko) Chrome/107.0.0.0 Safari/537.36","WebKit","Chrome","107.0.0.0","Windows","10.0","","","5","",""
"3906","You see how an artist is running <br> T&uacute ves como un artista est&aacute corriendo","{""Q0"":3}","practice","44338","survey-likert","7","118215","0.0-3.0-0.3","38","1","2022-11-29 21:25:04","2df368f4e41f066fd1c82c297b4a1108","189.217.89.90","Mozilla/5.0 (Windows NT 10.0; Win64; x64) AppleWebKit/537.36 (KHTML, like Gecko) Chrome/107.0.0.0 Safari/537.36","WebKit","Chrome","107.0.0.0","Windows","10.0","[0]","3","","",""
"14304","You drop a bowling ball on a mircrowave <br> T&uacute tiras una bola de boliche a un horno","{""Q0"":2}","practice","44338","survey-likert","8","132524","0.0-3.0-0.4","38","1","2022-11-29 21:25:04","2df368f4e41f066fd1c82c297b4a1108","189.217.89.90","Mozilla/5.0 (Windows NT 10.0; Win64; x64) AppleWebKit/537.36 (KHTML, like Gecko) Chrome/107.0.0.0 Safari/537.36","WebKit","Chrome","107.0.0.0","Windows","10.0","[0]","2","","",""
"12242","You see how a teacher is drawing a picture <br> T&uacute ves como un maestro pinta una foto","{""Q0"":0}","practice","44338","survey-likert","9","144775","0.0-3.0-0.5","38","1","2022-11-29 21:25:04","2df368f4e41f066fd1c82c297b4a1108","189.217.89.90","Mozilla/5.0 (Windows NT 10.0; Win64; x64) AppleWebKit/537.36 (KHTML, like Gecko) Chrome/107.0.0.0 Safari/537.36","WebKit","Chrome","107.0.0.0","Windows","10.0","[0]","0","","",""
"19873","You see how a teacher is drawing a picture <br> T&uacute ves como un maestro pinta una foto","{""Q0"":""Tú ves como un doctor está dibujando una pintura""}","practice_low_rate","44338","survey-text","10","164662","0.0-3.0-1.5-0.5","38","1","2022-11-29 21:25:04","2df368f4e41f066fd1c82c297b4a1108","189.217.89.90","Mozilla/5.0 (Windows NT 10.0; Win64; x64) AppleWebKit/537.36 (KHTML, like Gecko) Chrome/107.0.0.0 Safari/537.36","WebKit","Chrome","107.0.0.0","Windows","10.0","","","4","",""
"12434","<p style=""font-size:20px;"">You have now completed the practice session! </p>
        <p style=""font-size:20px;"">You will now move on to the main experiment. </p>
        <p style=""font-size:20px;"">Please click the button below to continue. </p>","0","movetoexp","44338","html-button-response","11","177096","0.0-4.0","38","1","2022-11-29 21:25:04","2df368f4e41f066fd1c82c297b4a1108","189.217.89.90","Mozilla/5.0 (Windows NT 10.0; Win64; x64) AppleWebKit/537.36 (KHTML, like Gecko) Chrome/107.0.0.0 Safari/537.36","WebKit","Chrome","107.0.0.0","Windows","10.0","","","","",""
"7438","You see how a thief is stealing a wallet <br> T&uacute ves como un ladr&oacuten est&aacute robando una billetera","{""Q0"":4}","trial","44338","survey-likert","12","184536","0.0-5.0-0.0","38","1","2022-11-29 21:25:04","2df368f4e41f066fd1c82c297b4a1108","189.217.89.90","Mozilla/5.0 (Windows NT 10.0; Win64; x64) AppleWebKit/537.36 (KHTML, like Gecko) Chrome/107.0.0.0 Safari/537.36","WebKit","Chrome","107.0.0.0","Windows","10.0","[0]","","68","4",""
"4704","You see how a puppy is playing with a ball <br> T&uacute ves como un cachorro est&aacute jugando con una pelota","{""Q0"":4}","trial","44338","survey-likert","13","189245","0.0-5.0-0.1","38","1","2022-11-29 21:25:04","2df368f4e41f066fd1c82c297b4a1108","189.217.89.90","Mozilla/5.0 (Windows NT 10.0; Win64; x64) AppleWebKit/537.36 (KHTML, like Gecko) Chrome/107.0.0.0 Safari/537.36","WebKit","Chrome","107.0.0.0","Windows","10.0","[0]","","34","4",""
"10360","You drop a bowling ball on a blackberry <br> T&uacute tiras una bola de boliche a una mora","{""Q0"":2}","trial","44338","survey-likert","14","199615","0.0-5.0-0.2","38","1","2022-11-29 21:25:04","2df368f4e41f066fd1c82c297b4a1108","189.217.89.90","Mozilla/5.0 (Windows NT 10.0; Win64; x64) AppleWebKit/537.36 (KHTML, like Gecko) Chrome/107.0.0.0 Safari/537.36","WebKit","Chrome","107.0.0.0","Windows","10.0","[0]","","8","2",""
"11198","You see how a doctor is taking a stethoscope <br> T&uacute ves como un doctor est&aacute agarrando un estetoscopio","{""Q0"":3}","trial","44338","survey-likert","15","210821","0.0-5.0-0.3","38","1","2022-11-29 21:25:04","2df368f4e41f066fd1c82c297b4a1108","189.217.89.90","Mozilla/5.0 (Windows NT 10.0; Win64; x64) AppleWebKit/537.36 (KHTML, like Gecko) Chrome/107.0.0.0 Safari/537.36","WebKit","Chrome","107.0.0.0","Windows","10.0","[0]","","49","3",""
"8458","You drop a bowling ball on a rice cake <br> T&uacute tiras una bola de boliche a una tortita de arroz","{""Q0"":3}","trial","44338","survey-likert","16","219282","0.0-5.0-0.4","38","1","2022-11-29 21:25:04","2df368f4e41f066fd1c82c297b4a1108","189.217.89.90","Mozilla/5.0 (Windows NT 10.0; Win64; x64) AppleWebKit/537.36 (KHTML, like Gecko) Chrome/107.0.0.0 Safari/537.36","WebKit","Chrome","107.0.0.0","Windows","10.0","[0]","","18","3",""
"4555","You see how a kitten is playing in the sandbox <br> T&uacute ves como un gatito est&aacute jugando en la caja de arena","{""Q0"":3}","trial","44338","survey-likert","17","223842","0.0-5.0-0.5","38","1","2022-11-29 21:25:04","2df368f4e41f066fd1c82c297b4a1108","189.217.89.90","Mozilla/5.0 (Windows NT 10.0; Win64; x64) AppleWebKit/537.36 (KHTML, like Gecko) Chrome/107.0.0.0 Safari/537.36","WebKit","Chrome","107.0.0.0","Windows","10.0","[0]","","52","3",""
"23744","You drop a bowling ball on a porcelain figure <br> T&uacute tiras una bola de boliche a una figura de porcelana","{""Q0"":3}","trial","44338","survey-likert","18","247592","0.0-5.0-0.6","38","1","2022-11-29 21:25:04","2df368f4e41f066fd1c82c297b4a1108","189.217.89.90","Mozilla/5.0 (Windows NT 10.0; Win64; x64) AppleWebKit/537.36 (KHTML, like Gecko) Chrome/107.0.0.0 Safari/537.36","WebKit","Chrome","107.0.0.0","Windows","10.0","[0]","","1","3",""
"6082","You see how a parrot is eating an apple <br> T&uacute ves como un loro est&aacute comiendo una manzana","{""Q0"":3}","trial","44338","survey-likert","19","253677","0.0-5.0-0.7","38","1","2022-11-29 21:25:04","2df368f4e41f066fd1c82c297b4a1108","189.217.89.90","Mozilla/5.0 (Windows NT 10.0; Win64; x64) AppleWebKit/537.36 (KHTML, like Gecko) Chrome/107.0.0.0 Safari/537.36","WebKit","Chrome","107.0.0.0","Windows","10.0","[0]","","58","3",""
"3824","You see how a teenage girl is playing the piano <br> T&uacute ves como una ni&ntildea adolescente est&aacute tocando el piano","{""Q0"":3}","trial","44338","survey-likert","20","257505","0.0-5.0-0.8","38","1","2022-11-29 21:25:04","2df368f4e41f066fd1c82c297b4a1108","189.217.89.90","Mozilla/5.0 (Windows NT 10.0; Win64; x64) AppleWebKit/537.36 (KHTML, like Gecko) Chrome/107.0.0.0 Safari/537.36","WebKit","Chrome","107.0.0.0","Windows","10.0","[0]","","54","3",""
"5181","You drop a bowling ball on a ceramic plate <br> T&uacute tiras una bola de boliche a un plato de cer&aacutemica","{""Q0"":3}","trial","44338","survey-likert","21","262690","0.0-5.0-0.9","38","1","2022-11-29 21:25:04","2df368f4e41f066fd1c82c297b4a1108","189.217.89.90","Mozilla/5.0 (Windows NT 10.0; Win64; x64) AppleWebKit/537.36 (KHTML, like Gecko) Chrome/107.0.0.0 Safari/537.36","WebKit","Chrome","107.0.0.0","Windows","10.0","[0]","","19","3",""
"3540","You drop a toothbrush on the sponge <br> T&uacute tiras un cepillo de dientes en la esponja","{""Q0"":3}","trial","44338","survey-likert","22","266233","0.0-5.0-0.10","38","1","2022-11-29 21:25:04","2df368f4e41f066fd1c82c297b4a1108","189.217.89.90","Mozilla/5.0 (Windows NT 10.0; Win64; x64) AppleWebKit/537.36 (KHTML, like Gecko) Chrome/107.0.0.0 Safari/537.36","WebKit","Chrome","107.0.0.0","Windows","10.0","[0]","","25","3",""
"19215","You drop a bowling ball on an egg flan <br> T&uacute tiras una bola de boliche a un flan","{""Q0"":3}","trial","44338","survey-likert","23","285452","0.0-5.0-0.11","38","1","2022-11-29 21:25:04","2df368f4e41f066fd1c82c297b4a1108","189.217.89.90","Mozilla/5.0 (Windows NT 10.0; Win64; x64) AppleWebKit/537.36 (KHTML, like Gecko) Chrome/107.0.0.0 Safari/537.36","WebKit","Chrome","107.0.0.0","Windows","10.0","[0]","","7","3",""
"4773","You see how a man is playing with a cat <br> T&uacute ves como un hombre est&aacute jugando con un gato","{""Q0"":3}","trial","44338","survey-likert","24","290229","0.0-5.0-0.12","38","1","2022-11-29 21:25:04","2df368f4e41f066fd1c82c297b4a1108","189.217.89.90","Mozilla/5.0 (Windows NT 10.0; Win64; x64) AppleWebKit/537.36 (KHTML, like Gecko) Chrome/107.0.0.0 Safari/537.36","WebKit","Chrome","107.0.0.0","Windows","10.0","[0]","","67","3",""
"3309","You drop a bowling ball on a tomato <br> T&uacute tiras una bola de boliche a un tomate","{""Q0"":3}","trial","44338","survey-likert","25","293541","0.0-5.0-0.13","38","1","2022-11-29 21:25:04","2df368f4e41f066fd1c82c297b4a1108","189.217.89.90","Mozilla/5.0 (Windows NT 10.0; Win64; x64) AppleWebKit/537.36 (KHTML, like Gecko) Chrome/107.0.0.0 Safari/537.36","WebKit","Chrome","107.0.0.0","Windows","10.0","[0]","","23","3",""
"3715","You see how a postman is driving a car <br> T&uacute ves como un cartero est&aacute conduciendo un coche","{""Q0"":3}","trial","44338","survey-likert","26","297260","0.0-5.0-0.14","38","1","2022-11-29 21:25:04","2df368f4e41f066fd1c82c297b4a1108","189.217.89.90","Mozilla/5.0 (Windows NT 10.0; Win64; x64) AppleWebKit/537.36 (KHTML, like Gecko) Chrome/107.0.0.0 Safari/537.36","WebKit","Chrome","107.0.0.0","Windows","10.0","[0]","","32","3",""
"4323","You see how a man is boiling potatoes <br> T&uacute ves a un hombre est&aacute hirviendo papas","{""Q0"":3}","trial","44338","survey-likert","27","301587","0.0-5.0-0.15","38","1","2022-11-29 21:25:04","2df368f4e41f066fd1c82c297b4a1108","189.217.89.90","Mozilla/5.0 (Windows NT 10.0; Win64; x64) AppleWebKit/537.36 (KHTML, like Gecko) Chrome/107.0.0.0 Safari/537.36","WebKit","Chrome","107.0.0.0","Windows","10.0","[0]","","46","3",""
"4766","You drop a thermometer on the box <br> T&uacute tiras un term&oacutemetro a la caja","{""Q0"":3}","trial","44338","survey-likert","28","306356","0.0-5.0-0.16","38","1","2022-11-29 21:25:04","2df368f4e41f066fd1c82c297b4a1108","189.217.89.90","Mozilla/5.0 (Windows NT 10.0; Win64; x64) AppleWebKit/537.36 (KHTML, like Gecko) Chrome/107.0.0.0 Safari/537.36","WebKit","Chrome","107.0.0.0","Windows","10.0","[0]","","70","3",""
"17958","You see how a woman is taking money out of a wallet <br> T&uacute ves como una mujer est&aacute sacando dinero de su billetera","{""Q0"":1}","trial","44338","survey-likert","29","324315","0.0-5.0-0.17","38","1","2022-11-29 21:25:04","2df368f4e41f066fd1c82c297b4a1108","189.217.89.90","Mozilla/5.0 (Windows NT 10.0; Win64; x64) AppleWebKit/537.36 (KHTML, like Gecko) Chrome/107.0.0.0 Safari/537.36","WebKit","Chrome","107.0.0.0","Windows","10.0","[0]","","44","1",""
"19367","You see how a woman is taking money out of a wallet <br> T&uacute ves como una mujer est&aacute sacando dinero de su billetera","{""Q0"":""Tú ves cómo una mujer está sacando dinero de UNA billetera""}","low_rate","44338","survey-text","30","343690","0.0-5.0-1.17-0.17","38","1","2022-11-29 21:25:04","2df368f4e41f066fd1c82c297b4a1108","189.217.89.90","Mozilla/5.0 (Windows NT 10.0; Win64; x64) AppleWebKit/537.36 (KHTML, like Gecko) Chrome/107.0.0.0 Safari/537.36","WebKit","Chrome","107.0.0.0","Windows","10.0","","","44","",""
"7366","You drop a cushion on the magazine <br> T&uacute tiras un coj&iacuten a la revista","{""Q0"":3}","trial","44338","survey-likert","31","351058","0.0-5.0-0.18","38","1","2022-11-29 21:25:04","2df368f4e41f066fd1c82c297b4a1108","189.217.89.90","Mozilla/5.0 (Windows NT 10.0; Win64; x64) AppleWebKit/537.36 (KHTML, like Gecko) Chrome/107.0.0.0 Safari/537.36","WebKit","Chrome","107.0.0.0","Windows","10.0","[0]","","38","3",""
"3567","You see how a pilot is reading a book <br> T&uacute ves como un piloto est&aacute leyendo un libro","{""Q0"":3}","trial","44338","survey-likert","32","354629","0.0-5.0-0.19","38","1","2022-11-29 21:25:04","2df368f4e41f066fd1c82c297b4a1108","189.217.89.90","Mozilla/5.0 (Windows NT 10.0; Win64; x64) AppleWebKit/537.36 (KHTML, like Gecko) Chrome/107.0.0.0 Safari/537.36","WebKit","Chrome","107.0.0.0","Windows","10.0","[0]","","61","3",""
"5915","You see how a photographer is taking a photo of a lion <br> T&uacute ves como un fot&oacutegrafo est&aacute tomando una foto de un le&oacuten","{""Q0"":3}","trial","44338","survey-likert","33","360548","0.0-5.0-0.20","38","1","2022-11-29 21:25:04","2df368f4e41f066fd1c82c297b4a1108","189.217.89.90","Mozilla/5.0 (Windows NT 10.0; Win64; x64) AppleWebKit/537.36 (KHTML, like Gecko) Chrome/107.0.0.0 Safari/537.36","WebKit","Chrome","107.0.0.0","Windows","10.0","[0]","","72","3",""
"4183","You see how a zebra is playing with a horse <br> T&uacute ves como una cebra est&aacute jugando con un caballo","{""Q0"":3}","trial","44338","survey-likert","34","364739","0.0-5.0-0.21","38","1","2022-11-29 21:25:04","2df368f4e41f066fd1c82c297b4a1108","189.217.89.90","Mozilla/5.0 (Windows NT 10.0; Win64; x64) AppleWebKit/537.36 (KHTML, like Gecko) Chrome/107.0.0.0 Safari/537.36","WebKit","Chrome","107.0.0.0","Windows","10.0","[0]","","66","3",""
"3552","You see how an old man is hammering a nail <br> T&uacute ves como un hombre anciano est&aacute martillando un clavo","{""Q0"":3}","trial","44338","survey-likert","35","368300","0.0-5.0-0.22","38","1","2022-11-29 21:25:04","2df368f4e41f066fd1c82c297b4a1108","189.217.89.90","Mozilla/5.0 (Windows NT 10.0; Win64; x64) AppleWebKit/537.36 (KHTML, like Gecko) Chrome/107.0.0.0 Safari/537.36","WebKit","Chrome","107.0.0.0","Windows","10.0","[0]","","29","3",""
"2883","You see how a giraffe is playing with a zebra <br> T&uacute ves como una jirafa est&aacute jugando con una cebra","{""Q0"":3}","trial","44338","survey-likert","36","371187","0.0-5.0-0.23","38","1","2022-11-29 21:25:04","2df368f4e41f066fd1c82c297b4a1108","189.217.89.90","Mozilla/5.0 (Windows NT 10.0; Win64; x64) AppleWebKit/537.36 (KHTML, like Gecko) Chrome/107.0.0.0 Safari/537.36","WebKit","Chrome","107.0.0.0","Windows","10.0","[0]","","65","3",""
"6739","You drop a bowling ball on a paper cup <br> T&uacute tiras una bola de boliche a un vaso de papel","{""Q0"":3}","trial","44338","survey-likert","37","377930","0.0-5.0-0.24","38","1","2022-11-29 21:25:04","2df368f4e41f066fd1c82c297b4a1108","189.217.89.90","Mozilla/5.0 (Windows NT 10.0; Win64; x64) AppleWebKit/537.36 (KHTML, like Gecko) Chrome/107.0.0.0 Safari/537.36","WebKit","Chrome","107.0.0.0","Windows","10.0","[0]","","24","3",""
"4589","You see how an elephant is eating a watermelon <br> T&uacute ves como un elefante est&aacute comiendo una sand&iacutea","{""Q0"":3}","trial","44338","survey-likert","38","382523","0.0-5.0-0.25","38","1","2022-11-29 21:25:04","2df368f4e41f066fd1c82c297b4a1108","189.217.89.90","Mozilla/5.0 (Windows NT 10.0; Win64; x64) AppleWebKit/537.36 (KHTML, like Gecko) Chrome/107.0.0.0 Safari/537.36","WebKit","Chrome","107.0.0.0","Windows","10.0","[0]","","31","3",""
"4342","You drop a towel on the TV <br> T&uacute tiras una toalla a la televisi&oacuten","{""Q0"":3}","trial","44338","survey-likert","39","386869","0.0-5.0-0.26","38","1","2022-11-29 21:25:04","2df368f4e41f066fd1c82c297b4a1108","189.217.89.90","Mozilla/5.0 (Windows NT 10.0; Win64; x64) AppleWebKit/537.36 (KHTML, like Gecko) Chrome/107.0.0.0 Safari/537.36","WebKit","Chrome","107.0.0.0","Windows","10.0","[0]","","53","3",""
"6694","You see how a horse is chewing hay <br> T&uacute ves como un caballo est&aacute masticando el heno","{""Q0"":3}","trial","44338","survey-likert","40","393568","0.0-5.0-0.27","38","1","2022-11-29 21:25:04","2df368f4e41f066fd1c82c297b4a1108","189.217.89.90","Mozilla/5.0 (Windows NT 10.0; Win64; x64) AppleWebKit/537.36 (KHTML, like Gecko) Chrome/107.0.0.0 Safari/537.36","WebKit","Chrome","107.0.0.0","Windows","10.0","[0]","","55","3",""
"4527","You drop a keyboard on the bed <br> T&uacute tiras un teclado a la cama","{""Q0"":3}","trial","44338","survey-likert","41","398100","0.0-5.0-0.28","38","1","2022-11-29 21:25:04","2df368f4e41f066fd1c82c297b4a1108","189.217.89.90","Mozilla/5.0 (Windows NT 10.0; Win64; x64) AppleWebKit/537.36 (KHTML, like Gecko) Chrome/107.0.0.0 Safari/537.36","WebKit","Chrome","107.0.0.0","Windows","10.0","[0]","","36","3",""
"4462","You drop a bowling ball on an iPAD <br> T&uacute tiras una bola de boliche a un iPad","{""Q0"":3}","trial","44338","survey-likert","42","402566","0.0-5.0-0.29","38","1","2022-11-29 21:25:04","2df368f4e41f066fd1c82c297b4a1108","189.217.89.90","Mozilla/5.0 (Windows NT 10.0; Win64; x64) AppleWebKit/537.36 (KHTML, like Gecko) Chrome/107.0.0.0 Safari/537.36","WebKit","Chrome","107.0.0.0","Windows","10.0","[0]","","12","3",""
"3802","You drop a pencil on the shoe <br> T&uacute tiras un l&aacutepiz al zapato","{""Q0"":3}","trial","44338","survey-likert","43","406372","0.0-5.0-0.30","38","1","2022-11-29 21:25:04","2df368f4e41f066fd1c82c297b4a1108","189.217.89.90","Mozilla/5.0 (Windows NT 10.0; Win64; x64) AppleWebKit/537.36 (KHTML, like Gecko) Chrome/107.0.0.0 Safari/537.36","WebKit","Chrome","107.0.0.0","Windows","10.0","[0]","","40","3",""
"4885","You drop a bowling ball on an iPhone <br> T&uacute tiras una bola de boliche a un iPhone","{""Q0"":3}","trial","44338","survey-likert","44","411261","0.0-5.0-0.31","38","1","2022-11-29 21:25:04","2df368f4e41f066fd1c82c297b4a1108","189.217.89.90","Mozilla/5.0 (Windows NT 10.0; Win64; x64) AppleWebKit/537.36 (KHTML, like Gecko) Chrome/107.0.0.0 Safari/537.36","WebKit","Chrome","107.0.0.0","Windows","10.0","[0]","","13","3",""
"3676","You drop a bowling ball on a donut <br> T&uacute tiras una bola de boliche a una rosquilla","{""Q0"":3}","trial","44338","survey-likert","45","414940","0.0-5.0-0.32","38","1","2022-11-29 21:25:04","2df368f4e41f066fd1c82c297b4a1108","189.217.89.90","Mozilla/5.0 (Windows NT 10.0; Win64; x64) AppleWebKit/537.36 (KHTML, like Gecko) Chrome/107.0.0.0 Safari/537.36","WebKit","Chrome","107.0.0.0","Windows","10.0","[0]","","17","3",""
"6289","You drop a bowling ball on a strawberry <br> T&uacute tiras una bola de boliche a una fresa","{""Q0"":3}","trial","44338","survey-likert","46","421233","0.0-5.0-0.33","38","1","2022-11-29 21:25:04","2df368f4e41f066fd1c82c297b4a1108","189.217.89.90","Mozilla/5.0 (Windows NT 10.0; Win64; x64) AppleWebKit/537.36 (KHTML, like Gecko) Chrome/107.0.0.0 Safari/537.36","WebKit","Chrome","107.0.0.0","Windows","10.0","[0]","","20","3",""
"7170","You drop a ring on the newspaper <br> T&uacute tiras un anillo al peri&oacutedico","{""Q0"":3}","trial","44338","survey-likert","47","428405","0.0-5.0-0.34","38","1","2022-11-29 21:25:04","2df368f4e41f066fd1c82c297b4a1108","189.217.89.90","Mozilla/5.0 (Windows NT 10.0; Win64; x64) AppleWebKit/537.36 (KHTML, like Gecko) Chrome/107.0.0.0 Safari/537.36","WebKit","Chrome","107.0.0.0","Windows","10.0","[0]","","41","3",""
"2687","You see how a donkey is drinking water <br> T&uacute ves como un burro est&aacute bebiendo agua","{""Q0"":3}","trial","44338","survey-likert","48","431098","0.0-5.0-0.35","38","1","2022-11-29 21:25:04","2df368f4e41f066fd1c82c297b4a1108","189.217.89.90","Mozilla/5.0 (Windows NT 10.0; Win64; x64) AppleWebKit/537.36 (KHTML, like Gecko) Chrome/107.0.0.0 Safari/537.36","WebKit","Chrome","107.0.0.0","Windows","10.0","[0]","","45","3",""
"6694","You drop a fork on the plate <br> T&uacute tiras un tenedor al plato","{""Q0"":3}","trial","44338","survey-likert","49","437797","0.0-5.0-0.36","38","1","2022-11-29 21:25:04","2df368f4e41f066fd1c82c297b4a1108","189.217.89.90","Mozilla/5.0 (Windows NT 10.0; Win64; x64) AppleWebKit/537.36 (KHTML, like Gecko) Chrome/107.0.0.0 Safari/537.36","WebKit","Chrome","107.0.0.0","Windows","10.0","[0]","","26","3",""
"8676","You drop a watch on the laptop <br> T&uacute tiras un reloj al port&aacutetil","{""Q0"":3}","trial","44338","survey-likert","50","446477","0.0-5.0-0.37","38","1","2022-11-29 21:25:04","2df368f4e41f066fd1c82c297b4a1108","189.217.89.90","Mozilla/5.0 (Windows NT 10.0; Win64; x64) AppleWebKit/537.36 (KHTML, like Gecko) Chrome/107.0.0.0 Safari/537.36","WebKit","Chrome","107.0.0.0","Windows","10.0","[0]","","37","3",""
"7211","You see how an actress is taking a microphone <br> T&uacute ves como una actriz est&aacute agarrando el micr&oacutefono","{""Q0"":3}","trial","44338","survey-likert","51","453693","0.0-5.0-0.38","38","1","2022-11-29 21:25:04","2df368f4e41f066fd1c82c297b4a1108","189.217.89.90","Mozilla/5.0 (Windows NT 10.0; Win64; x64) AppleWebKit/537.36 (KHTML, like Gecko) Chrome/107.0.0.0 Safari/537.36","WebKit","Chrome","107.0.0.0","Windows","10.0","[0]","","51","3",""
"4195","You drop a bowling ball on a light bulb <br> T&uacute tiras una bola de boliche a una bombilla","{""Q0"":3}","trial","44338","survey-likert","52","457893","0.0-5.0-0.39","38","1","2022-11-29 21:25:04","2df368f4e41f066fd1c82c297b4a1108","189.217.89.90","Mozilla/5.0 (Windows NT 10.0; Win64; x64) AppleWebKit/537.36 (KHTML, like Gecko) Chrome/107.0.0.0 Safari/537.36","WebKit","Chrome","107.0.0.0","Windows","10.0","[0]","","14","3",""
"2599","You see how a musician is playing a guitar <br> T&uacute ves como un m&uacutesico est&aacute tocando la guitarra","{""Q0"":3}","trial","44338","survey-likert","53","460496","0.0-5.0-0.40","38","1","2022-11-29 21:25:04","2df368f4e41f066fd1c82c297b4a1108","189.217.89.90","Mozilla/5.0 (Windows NT 10.0; Win64; x64) AppleWebKit/537.36 (KHTML, like Gecko) Chrome/107.0.0.0 Safari/537.36","WebKit","Chrome","107.0.0.0","Windows","10.0","[0]","","27","3",""
"6552","You see how a president is writing in the notebook <br> T&uacute ves como un presidente est&aacute escribiendo en la libreta","{""Q0"":3}","trial","44338","survey-likert","54","467053","0.0-5.0-0.41","38","1","2022-11-29 21:25:04","2df368f4e41f066fd1c82c297b4a1108","189.217.89.90","Mozilla/5.0 (Windows NT 10.0; Win64; x64) AppleWebKit/537.36 (KHTML, like Gecko) Chrome/107.0.0.0 Safari/537.36","WebKit","Chrome","107.0.0.0","Windows","10.0","[0]","","63","3",""
"3536","You see how a mouse is eating cheese <br> T&uacute ves como el rat&oacuten est&aacute comiendo queso","{""Q0"":3}","trial","44338","survey-likert","55","470594","0.0-5.0-0.42","38","1","2022-11-29 21:25:04","2df368f4e41f066fd1c82c297b4a1108","189.217.89.90","Mozilla/5.0 (Windows NT 10.0; Win64; x64) AppleWebKit/537.36 (KHTML, like Gecko) Chrome/107.0.0.0 Safari/537.36","WebKit","Chrome","107.0.0.0","Windows","10.0","[0]","","56","3",""
"3139","You see how a butterfly is sitting on a flower <br> T&uacute ves como una mariposa est&aacute reposando en una flor","{""Q0"":3}","trial","44338","survey-likert","56","473739","0.0-5.0-0.43","38","1","2022-11-29 21:25:04","2df368f4e41f066fd1c82c297b4a1108","189.217.89.90","Mozilla/5.0 (Windows NT 10.0; Win64; x64) AppleWebKit/537.36 (KHTML, like Gecko) Chrome/107.0.0.0 Safari/537.36","WebKit","Chrome","107.0.0.0","Windows","10.0","[0]","","59","3",""
"5377","You see how a police officer is talking on the phone <br> T&uacute ves como un polic&iacutea est&aacute hablando por el tel&eacutefono","{""Q0"":3}","trial","44338","survey-likert","57","479122","0.0-5.0-0.44","38","1","2022-11-29 21:25:04","2df368f4e41f066fd1c82c297b4a1108","189.217.89.90","Mozilla/5.0 (Windows NT 10.0; Win64; x64) AppleWebKit/537.36 (KHTML, like Gecko) Chrome/107.0.0.0 Safari/537.36","WebKit","Chrome","107.0.0.0","Windows","10.0","[0]","","62","3",""
"3819","You drop a bowling ball on glasses <br> T&uacute tiras una bola de boliche a unas gafas","{""Q0"":3}","trial","44338","survey-likert","58","482945","0.0-5.0-0.45","38","1","2022-11-29 21:25:04","2df368f4e41f066fd1c82c297b4a1108","189.217.89.90","Mozilla/5.0 (Windows NT 10.0; Win64; x64) AppleWebKit/537.36 (KHTML, like Gecko) Chrome/107.0.0.0 Safari/537.36","WebKit","Chrome","107.0.0.0","Windows","10.0","[0]","","9","3",""
"9784","You see how a nurse is taking a syringe <br> T&uacute ves como una enfermera est&aacute agarrando una jeringuilla","{""Q0"":1}","trial","44338","survey-likert","59","492732","0.0-5.0-0.46","38","1","2022-11-29 21:25:04","2df368f4e41f066fd1c82c297b4a1108","189.217.89.90","Mozilla/5.0 (Windows NT 10.0; Win64; x64) AppleWebKit/537.36 (KHTML, like Gecko) Chrome/107.0.0.0 Safari/537.36","WebKit","Chrome","107.0.0.0","Windows","10.0","[0]","","48","1",""
"10938","You see how a nurse is taking a syringe <br> T&uacute ves como una enfermera est&aacute agarrando una jeringuilla","{""Q0"":""Tú ves como una enfermera está tomando una jeringa""}","low_rate","44338","survey-text","60","503675","0.0-5.0-1.46-0.46","38","1","2022-11-29 21:25:04","2df368f4e41f066fd1c82c297b4a1108","189.217.89.90","Mozilla/5.0 (Windows NT 10.0; Win64; x64) AppleWebKit/537.36 (KHTML, like Gecko) Chrome/107.0.0.0 Safari/537.36","WebKit","Chrome","107.0.0.0","Windows","10.0","","","48","",""
"6309","You see how a dentist is drinking a can of cola <br> T&uacute ves como un dentista est&aacute bebiendo una lata de cola","{""Q0"":3}","trial","44338","survey-likert","61","509986","0.0-5.0-0.47","38","1","2022-11-29 21:25:04","2df368f4e41f066fd1c82c297b4a1108","189.217.89.90","Mozilla/5.0 (Windows NT 10.0; Win64; x64) AppleWebKit/537.36 (KHTML, like Gecko) Chrome/107.0.0.0 Safari/537.36","WebKit","Chrome","107.0.0.0","Windows","10.0","[0]","","47","3",""
"3956","You drop a bowling ball on a chocolate ice-cream <br> T&uacute tiras una bola de boliche a un helado de chocolate","{""Q0"":3}","trial","44338","survey-likert","62","513947","0.0-5.0-0.48","38","1","2022-11-29 21:25:04","2df368f4e41f066fd1c82c297b4a1108","189.217.89.90","Mozilla/5.0 (Windows NT 10.0; Win64; x64) AppleWebKit/537.36 (KHTML, like Gecko) Chrome/107.0.0.0 Safari/537.36","WebKit","Chrome","107.0.0.0","Windows","10.0","[0]","","11","3",""
"8571","You drop a needle on the mouse pad <br> T&uacute tiras una aguja a la alfombrilla para el rat&oacuten","{""Q0"":3}","trial","44338","survey-likert","63","522522","0.0-5.0-0.49","38","1","2022-11-29 21:25:04","2df368f4e41f066fd1c82c297b4a1108","189.217.89.90","Mozilla/5.0 (Windows NT 10.0; Win64; x64) AppleWebKit/537.36 (KHTML, like Gecko) Chrome/107.0.0.0 Safari/537.36","WebKit","Chrome","107.0.0.0","Windows","10.0","[0]","","42","3",""
"4441","You drop a bowling ball on a tile <br> T&uacute tiras una bola de boliche a una baldosa","{""Q0"":3}","trial","44338","survey-likert","64","526967","0.0-5.0-0.50","38","1","2022-11-29 21:25:04","2df368f4e41f066fd1c82c297b4a1108","189.217.89.90","Mozilla/5.0 (Windows NT 10.0; Win64; x64) AppleWebKit/537.36 (KHTML, like Gecko) Chrome/107.0.0.0 Safari/537.36","WebKit","Chrome","107.0.0.0","Windows","10.0","[0]","","22","3",""
"2864","You see how a cat is drinking water from a bowl <br> T&uacute ves como un gato est&aacute bebiendo agua de un cuenco","{""Q0"":3}","trial","44338","survey-likert","65","529835","0.0-5.0-0.51","38","1","2022-11-29 21:25:04","2df368f4e41f066fd1c82c297b4a1108","189.217.89.90","Mozilla/5.0 (Windows NT 10.0; Win64; x64) AppleWebKit/537.36 (KHTML, like Gecko) Chrome/107.0.0.0 Safari/537.36","WebKit","Chrome","107.0.0.0","Windows","10.0","[0]","","28","3",""
"16786","You drop a bowling ball on a chocolate muffin <br> T&uacute tiras una bola de boliche a una magdalena de chocolate","{""Q0"":1}","trial","44338","survey-likert","66","546627","0.0-5.0-0.52","38","1","2022-11-29 21:25:04","2df368f4e41f066fd1c82c297b4a1108","189.217.89.90","Mozilla/5.0 (Windows NT 10.0; Win64; x64) AppleWebKit/537.36 (KHTML, like Gecko) Chrome/107.0.0.0 Safari/537.36","WebKit","Chrome","107.0.0.0","Windows","10.0","[0]","","16","1",""
"15023","You drop a bowling ball on a chocolate muffin <br> T&uacute tiras una bola de boliche a una magdalena de chocolate","{""Q0"":""tiras una bola de boliche en un panquecito de chocolate""}","low_rate","44338","survey-text","67","561658","0.0-5.0-1.52-0.52","38","1","2022-11-29 21:25:04","2df368f4e41f066fd1c82c297b4a1108","189.217.89.90","Mozilla/5.0 (Windows NT 10.0; Win64; x64) AppleWebKit/537.36 (KHTML, like Gecko) Chrome/107.0.0.0 Safari/537.36","WebKit","Chrome","107.0.0.0","Windows","10.0","","","16","",""
"3760","You drop a bowling ball on a piece of cake <br> T&uacute tiras una bola de boliche a un trozo de pastel","{""Q0"":3}","trial","44338","survey-likert","68","565421","0.0-5.0-0.53","38","1","2022-11-29 21:25:04","2df368f4e41f066fd1c82c297b4a1108","189.217.89.90","Mozilla/5.0 (Windows NT 10.0; Win64; x64) AppleWebKit/537.36 (KHTML, like Gecko) Chrome/107.0.0.0 Safari/537.36","WebKit","Chrome","107.0.0.0","Windows","10.0","[0]","","2","3",""
"3334","You drop a cabbage on the table <br> T&uacute tiras una col a la mesa","{""Q0"":3}","trial","44338","survey-likert","69","568759","0.0-5.0-0.54","38","1","2022-11-29 21:25:04","2df368f4e41f066fd1c82c297b4a1108","189.217.89.90","Mozilla/5.0 (Windows NT 10.0; Win64; x64) AppleWebKit/537.36 (KHTML, like Gecko) Chrome/107.0.0.0 Safari/537.36","WebKit","Chrome","107.0.0.0","Windows","10.0","[0]","","35","3",""
"3771","You drop a remote on the rug <br> T&uacute tiras un control remoto a la alfombra","{""Q0"":3}","trial","44338","survey-likert","70","572536","0.0-5.0-0.55","38","1","2022-11-29 21:25:04","2df368f4e41f066fd1c82c297b4a1108","189.217.89.90","Mozilla/5.0 (Windows NT 10.0; Win64; x64) AppleWebKit/537.36 (KHTML, like Gecko) Chrome/107.0.0.0 Safari/537.36","WebKit","Chrome","107.0.0.0","Windows","10.0","[0]","","39","3",""
"3794","You see how a panda is resting on a tree <br> T&uacute ves como un panda est&aacute descansando en un &aacuterbol","{""Q0"":3}","trial","44338","survey-likert","71","576335","0.0-5.0-0.56","38","1","2022-11-29 21:25:04","2df368f4e41f066fd1c82c297b4a1108","189.217.89.90","Mozilla/5.0 (Windows NT 10.0; Win64; x64) AppleWebKit/537.36 (KHTML, like Gecko) Chrome/107.0.0.0 Safari/537.36","WebKit","Chrome","107.0.0.0","Windows","10.0","[0]","","57","3",""
"6875","You drop a bowling ball on a hat <br> T&uacute tiras una bola de boliche a una gorra","{""Q0"":1}","trial","44338","survey-likert","72","583215","0.0-5.0-0.57","38","1","2022-11-29 21:25:04","2df368f4e41f066fd1c82c297b4a1108","189.217.89.90","Mozilla/5.0 (Windows NT 10.0; Win64; x64) AppleWebKit/537.36 (KHTML, like Gecko) Chrome/107.0.0.0 Safari/537.36","WebKit","Chrome","107.0.0.0","Windows","10.0","[0]","","10","1",""
"6761","You drop a bowling ball on a hat <br> T&uacute tiras una bola de boliche a una gorra","{""Q0"":""Tiras una bola de boliche a una gorra""}","low_rate","44338","survey-text","73","589991","0.0-5.0-1.57-0.57","38","1","2022-11-29 21:25:04","2df368f4e41f066fd1c82c297b4a1108","189.217.89.90","Mozilla/5.0 (Windows NT 10.0; Win64; x64) AppleWebKit/537.36 (KHTML, like Gecko) Chrome/107.0.0.0 Safari/537.36","WebKit","Chrome","107.0.0.0","Windows","10.0","","","10","",""
"7661","You drop a bowling ball on an egg <br> T&uacute tiras una bola de boliche a un huevo","{""Q0"":3}","trial","44338","survey-likert","74","597655","0.0-5.0-0.58","38","1","2022-11-29 21:25:04","2df368f4e41f066fd1c82c297b4a1108","189.217.89.90","Mozilla/5.0 (Windows NT 10.0; Win64; x64) AppleWebKit/537.36 (KHTML, like Gecko) Chrome/107.0.0.0 Safari/537.36","WebKit","Chrome","107.0.0.0","Windows","10.0","[0]","","6","3",""
"6068","You see how a woman is paying with a debit card <br> T&uacute ves como una mujer est&aacute pagando con una tarjeta de d&eacutebito","{""Q0"":3}","trial","44338","survey-likert","75","603728","0.0-5.0-0.59","38","1","2022-11-29 21:25:04","2df368f4e41f066fd1c82c297b4a1108","189.217.89.90","Mozilla/5.0 (Windows NT 10.0; Win64; x64) AppleWebKit/537.36 (KHTML, like Gecko) Chrome/107.0.0.0 Safari/537.36","WebKit","Chrome","107.0.0.0","Windows","10.0","[0]","","64","3",""
"3986","You drop a bowling ball on a piece of sushi <br> T&uacute tiras una bola de boliche a un pedazo de sushi","{""Q0"":3}","trial","44338","survey-likert","76","607720","0.0-5.0-0.60","38","1","2022-11-29 21:25:04","2df368f4e41f066fd1c82c297b4a1108","189.217.89.90","Mozilla/5.0 (Windows NT 10.0; Win64; x64) AppleWebKit/537.36 (KHTML, like Gecko) Chrome/107.0.0.0 Safari/537.36","WebKit","Chrome","107.0.0.0","Windows","10.0","[0]","","21","3",""
"7446","You see how a hairdresser is taking scissors <br> T&uacute ves como una peluquera est&aacute agarrando las tijeras","{""Q0"":3}","trial","44338","survey-likert","77","615161","0.0-5.0-0.61","38","1","2022-11-29 21:25:04","2df368f4e41f066fd1c82c297b4a1108","189.217.89.90","Mozilla/5.0 (Windows NT 10.0; Win64; x64) AppleWebKit/537.36 (KHTML, like Gecko) Chrome/107.0.0.0 Safari/537.36","WebKit","Chrome","107.0.0.0","Windows","10.0","[0]","","60","3",""
"5582","You drop a bowling ball on a cracker <br> T&uacute tiras una bola de boliche a una galleta","{""Q0"":3}","trial","44338","survey-likert","78","620747","0.0-5.0-0.62","38","1","2022-11-29 21:25:04","2df368f4e41f066fd1c82c297b4a1108","189.217.89.90","Mozilla/5.0 (Windows NT 10.0; Win64; x64) AppleWebKit/537.36 (KHTML, like Gecko) Chrome/107.0.0.0 Safari/537.36","WebKit","Chrome","107.0.0.0","Windows","10.0","[0]","","4","3",""
"4845","You see how an owl is sitting on the branch <br> T&uacute ves como un b&uacuteho est&aacute reposando en una rama","{""Q0"":3}","trial","44338","survey-likert","79","625596","0.0-5.0-0.63","38","1","2022-11-29 21:25:04","2df368f4e41f066fd1c82c297b4a1108","189.217.89.90","Mozilla/5.0 (Windows NT 10.0; Win64; x64) AppleWebKit/537.36 (KHTML, like Gecko) Chrome/107.0.0.0 Safari/537.36","WebKit","Chrome","107.0.0.0","Windows","10.0","[0]","","69","3",""
"4508","You see how an astronaut is putting on a space suit <br> T&uacute ves como un astronauta se est&aacute poniendo su traje espacial","{""Q0"":3}","trial","44338","survey-likert","80","630111","0.0-5.0-0.64","38","1","2022-11-29 21:25:04","2df368f4e41f066fd1c82c297b4a1108","189.217.89.90","Mozilla/5.0 (Windows NT 10.0; Win64; x64) AppleWebKit/537.36 (KHTML, like Gecko) Chrome/107.0.0.0 Safari/537.36","WebKit","Chrome","107.0.0.0","Windows","10.0","[0]","","33","3",""
"3772","You see how a student is writing on a board <br> T&uacute ves como un estudiante est&aacute escribiendo en la pizarra","{""Q0"":3}","trial","44338","survey-likert","81","633887","0.0-5.0-0.65","38","1","2022-11-29 21:25:04","2df368f4e41f066fd1c82c297b4a1108","189.217.89.90","Mozilla/5.0 (Windows NT 10.0; Win64; x64) AppleWebKit/537.36 (KHTML, like Gecko) Chrome/107.0.0.0 Safari/537.36","WebKit","Chrome","107.0.0.0","Windows","10.0","[0]","","50","3",""
"2415","You see how a boy is peeling a banana <br> T&uacute ves como un ni&ntildeo est&aacute pelando una banana","{""Q0"":3}","trial","44338","survey-likert","82","636306","0.0-5.0-0.66","38","1","2022-11-29 21:25:04","2df368f4e41f066fd1c82c297b4a1108","189.217.89.90","Mozilla/5.0 (Windows NT 10.0; Win64; x64) AppleWebKit/537.36 (KHTML, like Gecko) Chrome/107.0.0.0 Safari/537.36","WebKit","Chrome","107.0.0.0","Windows","10.0","[0]","","30","3",""
"3035","You drop a bowling ball on a wine glass <br> T&uacute tiras una bola de boliche a una copa de vino","{""Q0"":3}","trial","44338","survey-likert","83","639347","0.0-5.0-0.67","38","1","2022-11-29 21:25:04","2df368f4e41f066fd1c82c297b4a1108","189.217.89.90","Mozilla/5.0 (Windows NT 10.0; Win64; x64) AppleWebKit/537.36 (KHTML, like Gecko) Chrome/107.0.0.0 Safari/537.36","WebKit","Chrome","107.0.0.0","Windows","10.0","[0]","","5","3",""
"4138","You see how a man is shaving his beard <br> T&uacute ves como un hombre se est&aacute afeitando la barba","{""Q0"":3}","trial","44338","survey-likert","84","643492","0.0-5.0-0.68","38","1","2022-11-29 21:25:04","2df368f4e41f066fd1c82c297b4a1108","189.217.89.90","Mozilla/5.0 (Windows NT 10.0; Win64; x64) AppleWebKit/537.36 (KHTML, like Gecko) Chrome/107.0.0.0 Safari/537.36","WebKit","Chrome","107.0.0.0","Windows","10.0","[0]","","43","3",""
"5650","You drop a bowling ball on an empty can of beer <br> T&uacute tiras una bola de boliche a una lata de cerveza vac&iacutea","{""Q0"":3}","trial","44338","survey-likert","85","649147","0.0-5.0-0.69","38","1","2022-11-29 21:25:04","2df368f4e41f066fd1c82c297b4a1108","189.217.89.90","Mozilla/5.0 (Windows NT 10.0; Win64; x64) AppleWebKit/537.36 (KHTML, like Gecko) Chrome/107.0.0.0 Safari/537.36","WebKit","Chrome","107.0.0.0","Windows","10.0","[0]","","3","3",""
"8210","You see how a cook is taking a knife <br> T&uacute ves como un cocinero est&aacute agarrando un cuchillo","{""Q0"":3}","trial","44338","survey-likert","86","657361","0.0-5.0-0.70","38","1","2022-11-29 21:25:04","2df368f4e41f066fd1c82c297b4a1108","189.217.89.90","Mozilla/5.0 (Windows NT 10.0; Win64; x64) AppleWebKit/537.36 (KHTML, like Gecko) Chrome/107.0.0.0 Safari/537.36","WebKit","Chrome","107.0.0.0","Windows","10.0","[0]","","71","3",""
"5532","You drop a bowling ball on a mirror <br> T&uacute tiras una bola de boliche a un espejo","{""Q0"":3}","trial","44338","survey-likert","87","662897","0.0-5.0-0.71","38","1","2022-11-29 21:25:04","2df368f4e41f066fd1c82c297b4a1108","189.217.89.90","Mozilla/5.0 (Windows NT 10.0; Win64; x64) AppleWebKit/537.36 (KHTML, like Gecko) Chrome/107.0.0.0 Safari/537.36","WebKit","Chrome","107.0.0.0","Windows","10.0","[0]","","15","3",""
"9890","
    <p style=""font-size:20px;""> You have completed the experiment portion! </p>
    <p style=""font-size:20px;""> Before you are done, we would like you to answer some basic demographic questions. </p>
    <p style=""font-size:20px;""> Note that your answers to these questions will not affect your compensation/credit. </p>
    <p style=""font-size:20px;""> Click the button below to continue.</p>
    ","0","demo","44338","html-button-response","88","672801","0.0-6.0","38","1","2022-11-29 21:25:04","2df368f4e41f066fd1c82c297b4a1108","189.217.89.90","Mozilla/5.0 (Windows NT 10.0; Win64; x64) AppleWebKit/537.36 (KHTML, like Gecko) Chrome/107.0.0.0 Safari/537.36","WebKit","Chrome","107.0.0.0","Windows","10.0","","","","",""
"26938","","{""Age"":""23"",""Gender"":""female"",""Education"":""16""}","demo","44338","survey-text","89","699745","0.0-7.0-0.0","38","1","2022-11-29 21:25:04","2df368f4e41f066fd1c82c297b4a1108","189.217.89.90","Mozilla/5.0 (Windows NT 10.0; Win64; x64) AppleWebKit/537.36 (KHTML, like Gecko) Chrome/107.0.0.0 Safari/537.36","WebKit","Chrome","107.0.0.0","Windows","10.0","","","","",""
"9019","","{""Race"":[""Other""]}","demo","44338","survey-multi-select","90","708773","0.0-7.0-1.0","38","1","2022-11-29 21:25:04","2df368f4e41f066fd1c82c297b4a1108","189.217.89.90","Mozilla/5.0 (Windows NT 10.0; Win64; x64) AppleWebKit/537.36 (KHTML, like Gecko) Chrome/107.0.0.0 Safari/537.36","WebKit","Chrome","107.0.0.0","Windows","10.0","[0]","","","",""
"11285","","{""Latino"":""Yes"",""Alert"":""Morning""}","demo","44338","survey-multi-choice","91","720069","0.0-7.0-2.0","38","1","2022-11-29 21:25:04","2df368f4e41f066fd1c82c297b4a1108","189.217.89.90","Mozilla/5.0 (Windows NT 10.0; Win64; x64) AppleWebKit/537.36 (KHTML, like Gecko) Chrome/107.0.0.0 Safari/537.36","WebKit","Chrome","107.0.0.0","Windows","10.0","[0,1]","","","",""
"9941","","{""Q0"":""""}","demo","44338","survey-text","92","730029","0.0-7.0-3.0","38","1","2022-11-29 21:25:04","2df368f4e41f066fd1c82c297b4a1108","189.217.89.90","Mozilla/5.0 (Windows NT 10.0; Win64; x64) AppleWebKit/537.36 (KHTML, like Gecko) Chrome/107.0.0.0 Safari/537.36","WebKit","Chrome","107.0.0.0","Windows","10.0","","","","",""
"14831","<p>Thank you for participating! </p><strong>Your completion code is: CXEJB7NH. Please copy-paste this code and submit it on Prolific.</strong><p>Click <a href=""https://drive.google.com/file/d/1c70cdHFlc0AaR6RujLWLJwWkv1RbHQJY/view?usp=sharing"" target=""_blank"" rel=""noopener noreferrer"">here</a> to access the debriefing form and know more about our research. <p> Please click the button below to finish the experiment and save your data.</p> <p> IMPORTANT: Please <strong>do not leave this page </strong> without clicking the button below.</p> <p> You may close the tab/window after you click the button below.","0","","","html-button-response","93","744866","0.0-8.0","38","1","2022-11-29 21:25:04","2df368f4e41f066fd1c82c297b4a1108","189.217.89.90","Mozilla/5.0 (Windows NT 10.0; Win64; x64) AppleWebKit/537.36 (KHTML, like Gecko) Chrome/107.0.0.0 Safari/537.36","WebKit","Chrome","107.0.0.0","Windows","10.0","","","","",""
