"rt","stimulus","response","typeoftrial","subject","trial_type","trial_index","time_elapsed","internal_node_id","run_id","condition","recorded_at","source_code_version","ip","user_agent","device","browser","browser_version","platform","platform_version","question_order","practice_rating","sentence_num","rating","Experiment"
"251567","
        <p style=""font-size:20px;""> Welcome! Thank you for your interest in our study. </p>
        <p style=""font-size:20px;""> This study is being conducted by researchers at Bowdoin College.</p>
        <p style=""font-size:20px;""> In this experiment, you will be asked to rate the accuracy of English and Spanish translations.</p>
        <p style=""font-size:20px;""> The entire experiment should not last more than 20 minutes. You will be paid $3 USD for your participation. </p>
        <p style=""font-size:20px;""> Please click <a href = ""https://drive.google.com/file/d/1L92a02eEKCpaAEipmqDcBCDR7rsarqFE/view?usp=sharing"" target = ""_blank"">here</a> to read the full consent form. </p>
        <p style=""font-size:20px;""> If you agree to participate, please click the button below to continue to experiment instructions.</p>
        ","0","consent","23921","html-button-response","0","251572","0.0-0.0","29","1","2022-11-29 21:24:55","2df368f4e41f066fd1c82c297b4a1108","187.192.4.144","Mozilla/5.0 (Windows NT 10.0; Win64; x64) AppleWebKit/537.36 (KHTML, like Gecko) Chrome/107.0.0.0 Safari/537.36","WebKit","Chrome","107.0.0.0","Windows","10.0","","","","",""
"6049","","{""ID"":""5efe0db089ee652c0edd4a3d""}","ID","23921","survey-text","1","257631","0.0-1.0","29","1","2022-11-29 21:24:55","2df368f4e41f066fd1c82c297b4a1108","187.192.4.144","Mozilla/5.0 (Windows NT 10.0; Win64; x64) AppleWebKit/537.36 (KHTML, like Gecko) Chrome/107.0.0.0 Safari/537.36","WebKit","Chrome","107.0.0.0","Windows","10.0","","","","",""
"14292","
        <p style=""font-size:20px;""> You are about to begin the practice test. </p>
        <p style=""font-size:20px;""> On each trial, you will see a sentence in English and its corresponding Spanish translation. </p>
        <p style=""font-size:20px;""> You will rate the accuracy of the translation on a scale from ""Not at all accurate"" to ""Very accurate."" </p>
        <p style=""font-size:20px;""> If you rate the translation as ""Somewhat innaccurate"" or ""Not at all accurate,"" you will be asked to provide your own translation or a reason why the translation is inaccurate. </p>
        <p style=""font-size:20px;""> Click the button below to continue to the practice session.</p>","0","instructions","23921","html-button-response","2","271927","0.0-2.0","29","1","2022-11-29 21:24:55","2df368f4e41f066fd1c82c297b4a1108","187.192.4.144","Mozilla/5.0 (Windows NT 10.0; Win64; x64) AppleWebKit/537.36 (KHTML, like Gecko) Chrome/107.0.0.0 Safari/537.36","WebKit","Chrome","107.0.0.0","Windows","10.0","","","","",""
"54843","You drop a bowling ball on a mircrowave <br> T&uacute tiras una bola de boliche a un horno","{""Q0"":1}","practice","23921","survey-likert","3","326775","0.0-3.0-0.0","29","1","2022-11-29 21:24:55","2df368f4e41f066fd1c82c297b4a1108","187.192.4.144","Mozilla/5.0 (Windows NT 10.0; Win64; x64) AppleWebKit/537.36 (KHTML, like Gecko) Chrome/107.0.0.0 Safari/537.36","WebKit","Chrome","107.0.0.0","Windows","10.0","[0]","1","","",""
"63568","You drop a bowling ball on a mircrowave <br> T&uacute tiras una bola de boliche a un horno","{""Q0"":""The translation is innacurate since the word microwave is misspelled and it should have been Tú tiras una bola de boliche sobre un microondas ""}","practice_low_rate","23921","survey-text","4","390350","0.0-3.0-1.0-0.0","29","1","2022-11-29 21:24:55","2df368f4e41f066fd1c82c297b4a1108","187.192.4.144","Mozilla/5.0 (Windows NT 10.0; Win64; x64) AppleWebKit/537.36 (KHTML, like Gecko) Chrome/107.0.0.0 Safari/537.36","WebKit","Chrome","107.0.0.0","Windows","10.0","","","6","",""
"8828","You see how an artist is running <br> T&uacute ves como un artista est&aacute corriendo","{""Q0"":4}","practice","23921","survey-likert","5","399183","0.0-3.0-0.1","29","1","2022-11-29 21:24:55","2df368f4e41f066fd1c82c297b4a1108","187.192.4.144","Mozilla/5.0 (Windows NT 10.0; Win64; x64) AppleWebKit/537.36 (KHTML, like Gecko) Chrome/107.0.0.0 Safari/537.36","WebKit","Chrome","107.0.0.0","Windows","10.0","[0]","4","","",""
"8661","You see how a duck is playing with a pumpkin <br> T&uacute ves como un pato est&aacute jugando con una calabaza","{""Q0"":4}","practice","23921","survey-likert","6","407853","0.0-3.0-0.2","29","1","2022-11-29 21:24:55","2df368f4e41f066fd1c82c297b4a1108","187.192.4.144","Mozilla/5.0 (Windows NT 10.0; Win64; x64) AppleWebKit/537.36 (KHTML, like Gecko) Chrome/107.0.0.0 Safari/537.36","WebKit","Chrome","107.0.0.0","Windows","10.0","[0]","4","","",""
"22363","You drop a rock on a phone <br> T&uacute tiras una piedra a un tel&eacutefono","{""Q0"":1}","practice","23921","survey-likert","7","430225","0.0-3.0-0.3","29","1","2022-11-29 21:24:55","2df368f4e41f066fd1c82c297b4a1108","187.192.4.144","Mozilla/5.0 (Windows NT 10.0; Win64; x64) AppleWebKit/537.36 (KHTML, like Gecko) Chrome/107.0.0.0 Safari/537.36","WebKit","Chrome","107.0.0.0","Windows","10.0","[0]","1","","",""
"22241","You drop a rock on a phone <br> T&uacute tiras una piedra a un tel&eacutefono","{""Q0"":""Tú tiras una piedra sobre un teléfono""}","practice_low_rate","23921","survey-text","8","452473","0.0-3.0-1.3-0.3","29","1","2022-11-29 21:24:55","2df368f4e41f066fd1c82c297b4a1108","187.192.4.144","Mozilla/5.0 (Windows NT 10.0; Win64; x64) AppleWebKit/537.36 (KHTML, like Gecko) Chrome/107.0.0.0 Safari/537.36","WebKit","Chrome","107.0.0.0","Windows","10.0","","","1","",""
"295774","You see how a teacher is drawing a picture <br> T&uacute ves como un maestro pinta una foto","{""Q0"":0}","practice","23921","survey-likert","9","748248","0.0-3.0-0.4","29","1","2022-11-29 21:24:55","2df368f4e41f066fd1c82c297b4a1108","187.192.4.144","Mozilla/5.0 (Windows NT 10.0; Win64; x64) AppleWebKit/537.36 (KHTML, like Gecko) Chrome/107.0.0.0 Safari/537.36","WebKit","Chrome","107.0.0.0","Windows","10.0","[0]","0","","",""
"20077","You see how a teacher is drawing a picture <br> T&uacute ves como un maestro pinta una foto","{""Q0"":""Tú ves como un maestro está dibujando una foto""}","practice_low_rate","23921","survey-text","10","768335","0.0-3.0-1.4-0.4","29","1","2022-11-29 21:24:55","2df368f4e41f066fd1c82c297b4a1108","187.192.4.144","Mozilla/5.0 (Windows NT 10.0; Win64; x64) AppleWebKit/537.36 (KHTML, like Gecko) Chrome/107.0.0.0 Safari/537.36","WebKit","Chrome","107.0.0.0","Windows","10.0","","","4","",""
"39208","You see how a tiger is playing with a goose <br> T&uacute ves como un le&oacuten come una pizza","{""Q0"":0}","practice","23921","survey-likert","11","807545","0.0-3.0-0.5","29","1","2022-11-29 21:24:55","2df368f4e41f066fd1c82c297b4a1108","187.192.4.144","Mozilla/5.0 (Windows NT 10.0; Win64; x64) AppleWebKit/537.36 (KHTML, like Gecko) Chrome/107.0.0.0 Safari/537.36","WebKit","Chrome","107.0.0.0","Windows","10.0","[0]","0","","",""
"1623","You see how a tiger is playing with a goose <br> T&uacute ves como un le&oacuten come una pizza","{""Q0"":""Tú ves como un tigre está jugando con un ganso""}","practice_low_rate","23921","survey-text","12","809177","0.0-3.0-1.5-0.5","29","1","2022-11-29 21:24:55","2df368f4e41f066fd1c82c297b4a1108","187.192.4.144","Mozilla/5.0 (Windows NT 10.0; Win64; x64) AppleWebKit/537.36 (KHTML, like Gecko) Chrome/107.0.0.0 Safari/537.36","WebKit","Chrome","107.0.0.0","Windows","10.0","","","5","",""
"171069","<p style=""font-size:20px;"">You have now completed the practice session! </p>
        <p style=""font-size:20px;"">You will now move on to the main experiment. </p>
        <p style=""font-size:20px;"">Please click the button below to continue. </p>","0","movetoexp","23921","html-button-response","13","980248","0.0-4.0","29","1","2022-11-29 21:24:55","2df368f4e41f066fd1c82c297b4a1108","187.192.4.144","Mozilla/5.0 (Windows NT 10.0; Win64; x64) AppleWebKit/537.36 (KHTML, like Gecko) Chrome/107.0.0.0 Safari/537.36","WebKit","Chrome","107.0.0.0","Windows","10.0","","","","",""
"42104","You see how a thief is stealing a wallet <br> T&uacute ves como un ladr&oacuten est&aacute robando una billetera","{""Q0"":3}","trial","23921","survey-likert","14","1022355","0.0-5.0-0.0","29","1","2022-11-29 21:24:55","2df368f4e41f066fd1c82c297b4a1108","187.192.4.144","Mozilla/5.0 (Windows NT 10.0; Win64; x64) AppleWebKit/537.36 (KHTML, like Gecko) Chrome/107.0.0.0 Safari/537.36","WebKit","Chrome","107.0.0.0","Windows","10.0","[0]","","68","3",""
"57948","You see how a teenage girl is playing the piano <br> T&uacute ves como una ni&ntildea adolescente est&aacute tocando el piano","{""Q0"":3}","trial","23921","survey-likert","15","1080314","0.0-5.0-0.1","29","1","2022-11-29 21:24:55","2df368f4e41f066fd1c82c297b4a1108","187.192.4.144","Mozilla/5.0 (Windows NT 10.0; Win64; x64) AppleWebKit/537.36 (KHTML, like Gecko) Chrome/107.0.0.0 Safari/537.36","WebKit","Chrome","107.0.0.0","Windows","10.0","[0]","","54","3",""
"79665","You drop a toothbrush on the sponge <br> T&uacute tiras un cepillo de dientes en la esponja","{""Q0"":1}","trial","23921","survey-likert","16","1159986","0.0-5.0-0.2","29","1","2022-11-29 21:24:55","2df368f4e41f066fd1c82c297b4a1108","187.192.4.144","Mozilla/5.0 (Windows NT 10.0; Win64; x64) AppleWebKit/537.36 (KHTML, like Gecko) Chrome/107.0.0.0 Safari/537.36","WebKit","Chrome","107.0.0.0","Windows","10.0","[0]","","25","1",""
"4280","You drop a toothbrush on the sponge <br> T&uacute tiras un cepillo de dientes en la esponja","{""Q0"":""Tú tiras un cepillo de dientes sobre la esponja""}","low_rate","23921","survey-text","17","1164275","0.0-5.0-1.2-0.2","29","1","2022-11-29 21:24:55","2df368f4e41f066fd1c82c297b4a1108","187.192.4.144","Mozilla/5.0 (Windows NT 10.0; Win64; x64) AppleWebKit/537.36 (KHTML, like Gecko) Chrome/107.0.0.0 Safari/537.36","WebKit","Chrome","107.0.0.0","Windows","10.0","","","25","",""
"24898","You drop a remote on the rug <br> T&uacute tiras un control remoto a la alfombra","{""Q0"":1}","trial","23921","survey-likert","18","1189176","0.0-5.0-0.3","29","1","2022-11-29 21:24:55","2df368f4e41f066fd1c82c297b4a1108","187.192.4.144","Mozilla/5.0 (Windows NT 10.0; Win64; x64) AppleWebKit/537.36 (KHTML, like Gecko) Chrome/107.0.0.0 Safari/537.36","WebKit","Chrome","107.0.0.0","Windows","10.0","[0]","","39","1",""
"2116","You drop a remote on the rug <br> T&uacute tiras un control remoto a la alfombra","{""Q0"":""Tú tiras un control remoto sobre la alfombra""}","low_rate","23921","survey-text","19","1191302","0.0-5.0-1.3-0.3","29","1","2022-11-29 21:24:55","2df368f4e41f066fd1c82c297b4a1108","187.192.4.144","Mozilla/5.0 (Windows NT 10.0; Win64; x64) AppleWebKit/537.36 (KHTML, like Gecko) Chrome/107.0.0.0 Safari/537.36","WebKit","Chrome","107.0.0.0","Windows","10.0","","","39","",""
"48592","You see how a president is writing in the notebook <br> T&uacute ves como un presidente est&aacute escribiendo en la libreta","{""Q0"":4}","trial","23921","survey-likert","20","1239897","0.0-5.0-0.4","29","1","2022-11-29 21:24:55","2df368f4e41f066fd1c82c297b4a1108","187.192.4.144","Mozilla/5.0 (Windows NT 10.0; Win64; x64) AppleWebKit/537.36 (KHTML, like Gecko) Chrome/107.0.0.0 Safari/537.36","WebKit","Chrome","107.0.0.0","Windows","10.0","[0]","","63","4",""
"26992","You drop a bowling ball on a piece of cake <br> T&uacute tiras una bola de boliche a un trozo de pastel","{""Q0"":1}","trial","23921","survey-likert","21","1266898","0.0-5.0-0.5","29","1","2022-11-29 21:24:55","2df368f4e41f066fd1c82c297b4a1108","187.192.4.144","Mozilla/5.0 (Windows NT 10.0; Win64; x64) AppleWebKit/537.36 (KHTML, like Gecko) Chrome/107.0.0.0 Safari/537.36","WebKit","Chrome","107.0.0.0","Windows","10.0","[0]","","2","1",""
"1906","You drop a bowling ball on a piece of cake <br> T&uacute tiras una bola de boliche a un trozo de pastel","{""Q0"":""Tú tiras una bola de boliche sobre un trozo de pastel""}","low_rate","23921","survey-text","22","1268813","0.0-5.0-1.5-0.5","29","1","2022-11-29 21:24:55","2df368f4e41f066fd1c82c297b4a1108","187.192.4.144","Mozilla/5.0 (Windows NT 10.0; Win64; x64) AppleWebKit/537.36 (KHTML, like Gecko) Chrome/107.0.0.0 Safari/537.36","WebKit","Chrome","107.0.0.0","Windows","10.0","","","2","",""
"33137","You see how a cook is taking a knife <br> T&uacute ves como un cocinero est&aacute agarrando un cuchillo","{""Q0"":1}","trial","23921","survey-likert","23","1301952","0.0-5.0-0.6","29","1","2022-11-29 21:24:55","2df368f4e41f066fd1c82c297b4a1108","187.192.4.144","Mozilla/5.0 (Windows NT 10.0; Win64; x64) AppleWebKit/537.36 (KHTML, like Gecko) Chrome/107.0.0.0 Safari/537.36","WebKit","Chrome","107.0.0.0","Windows","10.0","[0]","","71","1",""
"1866","You see how a cook is taking a knife <br> T&uacute ves como un cocinero est&aacute agarrando un cuchillo","{""Q0"":""Tú ves como un cocinero está tomando un cuchillo""}","low_rate","23921","survey-text","24","1303828","0.0-5.0-1.6-0.6","29","1","2022-11-29 21:24:55","2df368f4e41f066fd1c82c297b4a1108","187.192.4.144","Mozilla/5.0 (Windows NT 10.0; Win64; x64) AppleWebKit/537.36 (KHTML, like Gecko) Chrome/107.0.0.0 Safari/537.36","WebKit","Chrome","107.0.0.0","Windows","10.0","","","71","",""
"16750","You see how a man is shaving his beard <br> T&uacute ves como un hombre se est&aacute afeitando la barba","{""Q0"":4}","trial","23921","survey-likert","25","1320580","0.0-5.0-0.7","29","1","2022-11-29 21:24:55","2df368f4e41f066fd1c82c297b4a1108","187.192.4.144","Mozilla/5.0 (Windows NT 10.0; Win64; x64) AppleWebKit/537.36 (KHTML, like Gecko) Chrome/107.0.0.0 Safari/537.36","WebKit","Chrome","107.0.0.0","Windows","10.0","[0]","","43","4",""
"56263","You drop a bowling ball on an empty can of beer <br> T&uacute tiras una bola de boliche a una lata de cerveza vac&iacutea","{""Q0"":1}","trial","23921","survey-likert","26","1376853","0.0-5.0-0.8","29","1","2022-11-29 21:24:55","2df368f4e41f066fd1c82c297b4a1108","187.192.4.144","Mozilla/5.0 (Windows NT 10.0; Win64; x64) AppleWebKit/537.36 (KHTML, like Gecko) Chrome/107.0.0.0 Safari/537.36","WebKit","Chrome","107.0.0.0","Windows","10.0","[0]","","3","1",""
"1347","You drop a bowling ball on an empty can of beer <br> T&uacute tiras una bola de boliche a una lata de cerveza vac&iacutea","{""Q0"":""Tú tiras una bola de boliche sobre una lata de cerveza vacía""}","low_rate","23921","survey-text","27","1378215","0.0-5.0-1.8-0.8","29","1","2022-11-29 21:24:55","2df368f4e41f066fd1c82c297b4a1108","187.192.4.144","Mozilla/5.0 (Windows NT 10.0; Win64; x64) AppleWebKit/537.36 (KHTML, like Gecko) Chrome/107.0.0.0 Safari/537.36","WebKit","Chrome","107.0.0.0","Windows","10.0","","","3","",""
"11322","You see how a pilot is reading a book <br> T&uacute ves como un piloto est&aacute leyendo un libro","{""Q0"":4}","trial","23921","survey-likert","28","1389541","0.0-5.0-0.9","29","1","2022-11-29 21:24:55","2df368f4e41f066fd1c82c297b4a1108","187.192.4.144","Mozilla/5.0 (Windows NT 10.0; Win64; x64) AppleWebKit/537.36 (KHTML, like Gecko) Chrome/107.0.0.0 Safari/537.36","WebKit","Chrome","107.0.0.0","Windows","10.0","[0]","","61","4",""
"95632","You drop a pencil on the shoe <br> T&uacute tiras un l&aacutepiz al zapato","{""Q0"":1}","trial","23921","survey-likert","29","1485184","0.0-5.0-0.10","29","1","2022-11-29 21:24:55","2df368f4e41f066fd1c82c297b4a1108","187.192.4.144","Mozilla/5.0 (Windows NT 10.0; Win64; x64) AppleWebKit/537.36 (KHTML, like Gecko) Chrome/107.0.0.0 Safari/537.36","WebKit","Chrome","107.0.0.0","Windows","10.0","[0]","","40","1",""
"1723","You drop a pencil on the shoe <br> T&uacute tiras un l&aacutepiz al zapato","{""Q0"":""Tú tiras un lápiz en el zapato""}","low_rate","23921","survey-text","30","1486924","0.0-5.0-1.10-0.10","29","1","2022-11-29 21:24:55","2df368f4e41f066fd1c82c297b4a1108","187.192.4.144","Mozilla/5.0 (Windows NT 10.0; Win64; x64) AppleWebKit/537.36 (KHTML, like Gecko) Chrome/107.0.0.0 Safari/537.36","WebKit","Chrome","107.0.0.0","Windows","10.0","","","40","",""
"41344","You see how a hairdresser is taking scissors <br> T&uacute ves como una peluquera est&aacute agarrando las tijeras","{""Q0"":3}","trial","23921","survey-likert","31","1528276","0.0-5.0-0.11","29","1","2022-11-29 21:24:55","2df368f4e41f066fd1c82c297b4a1108","187.192.4.144","Mozilla/5.0 (Windows NT 10.0; Win64; x64) AppleWebKit/537.36 (KHTML, like Gecko) Chrome/107.0.0.0 Safari/537.36","WebKit","Chrome","107.0.0.0","Windows","10.0","[0]","","60","3",""
"7504","You see how a doctor is taking a stethoscope <br> T&uacute ves como un doctor est&aacute agarrando un estetoscopio","{""Q0"":3}","trial","23921","survey-likert","32","1535791","0.0-5.0-0.12","29","1","2022-11-29 21:24:55","2df368f4e41f066fd1c82c297b4a1108","187.192.4.144","Mozilla/5.0 (Windows NT 10.0; Win64; x64) AppleWebKit/537.36 (KHTML, like Gecko) Chrome/107.0.0.0 Safari/537.36","WebKit","Chrome","107.0.0.0","Windows","10.0","[0]","","49","3",""
"37363","You see how a man is boiling potatoes <br> T&uacute ves a un hombre est&aacute hirviendo papas","{""Q0"":1}","trial","23921","survey-likert","33","1573161","0.0-5.0-0.13","29","1","2022-11-29 21:24:55","2df368f4e41f066fd1c82c297b4a1108","187.192.4.144","Mozilla/5.0 (Windows NT 10.0; Win64; x64) AppleWebKit/537.36 (KHTML, like Gecko) Chrome/107.0.0.0 Safari/537.36","WebKit","Chrome","107.0.0.0","Windows","10.0","[0]","","46","1",""
"1173","You see how a man is boiling potatoes <br> T&uacute ves a un hombre est&aacute hirviendo papas","{""Q0"":""Tú ves como un hombre está hirviendo papas""}","low_rate","23921","survey-text","34","1574350","0.0-5.0-1.13-0.13","29","1","2022-11-29 21:24:55","2df368f4e41f066fd1c82c297b4a1108","187.192.4.144","Mozilla/5.0 (Windows NT 10.0; Win64; x64) AppleWebKit/537.36 (KHTML, like Gecko) Chrome/107.0.0.0 Safari/537.36","WebKit","Chrome","107.0.0.0","Windows","10.0","","","46","",""
"111083","You drop a bowling ball on a piece of sushi <br> T&uacute tiras una bola de boliche a un pedazo de sushi","{""Q0"":1}","trial","23921","survey-likert","35","1685440","0.0-5.0-0.14","29","1","2022-11-29 21:24:55","2df368f4e41f066fd1c82c297b4a1108","187.192.4.144","Mozilla/5.0 (Windows NT 10.0; Win64; x64) AppleWebKit/537.36 (KHTML, like Gecko) Chrome/107.0.0.0 Safari/537.36","WebKit","Chrome","107.0.0.0","Windows","10.0","[0]","","21","1",""
"1442","You drop a bowling ball on a piece of sushi <br> T&uacute tiras una bola de boliche a un pedazo de sushi","{""Q0"":""Tú tiras una bola de boliche sobre un trozo de sushi""}","low_rate","23921","survey-text","36","1686897","0.0-5.0-1.14-0.14","29","1","2022-11-29 21:24:55","2df368f4e41f066fd1c82c297b4a1108","187.192.4.144","Mozilla/5.0 (Windows NT 10.0; Win64; x64) AppleWebKit/537.36 (KHTML, like Gecko) Chrome/107.0.0.0 Safari/537.36","WebKit","Chrome","107.0.0.0","Windows","10.0","","","21","",""
"422363","You drop a bowling ball on an egg flan <br> T&uacute tiras una bola de boliche a un flan","{""Q0"":1}","trial","23921","survey-likert","37","2109269","0.0-5.0-0.15","29","1","2022-11-29 21:24:55","2df368f4e41f066fd1c82c297b4a1108","187.192.4.144","Mozilla/5.0 (Windows NT 10.0; Win64; x64) AppleWebKit/537.36 (KHTML, like Gecko) Chrome/107.0.0.0 Safari/537.36","WebKit","Chrome","107.0.0.0","Windows","10.0","[0]","","7","1",""
"1307","You drop a bowling ball on an egg flan <br> T&uacute tiras una bola de boliche a un flan","{""Q0"":""Tú tiras una bola de boliche sobre un flan de huevo""}","low_rate","23921","survey-text","38","2110594","0.0-5.0-1.15-0.15","29","1","2022-11-29 21:24:55","2df368f4e41f066fd1c82c297b4a1108","187.192.4.144","Mozilla/5.0 (Windows NT 10.0; Win64; x64) AppleWebKit/537.36 (KHTML, like Gecko) Chrome/107.0.0.0 Safari/537.36","WebKit","Chrome","107.0.0.0","Windows","10.0","","","7","",""
"14400","You see how an actress is taking a microphone <br> T&uacute ves como una actriz est&aacute agarrando el micr&oacutefono","{""Q0"":3}","trial","23921","survey-likert","39","2124999","0.0-5.0-0.16","29","1","2022-11-29 21:24:55","2df368f4e41f066fd1c82c297b4a1108","187.192.4.144","Mozilla/5.0 (Windows NT 10.0; Win64; x64) AppleWebKit/537.36 (KHTML, like Gecko) Chrome/107.0.0.0 Safari/537.36","WebKit","Chrome","107.0.0.0","Windows","10.0","[0]","","51","3",""
"240587","You drop a bowling ball on a light bulb <br> T&uacute tiras una bola de boliche a una bombilla","{""Q0"":1}","trial","23921","survey-likert","40","2365598","0.0-5.0-0.17","29","1","2022-11-29 21:24:55","2df368f4e41f066fd1c82c297b4a1108","187.192.4.144","Mozilla/5.0 (Windows NT 10.0; Win64; x64) AppleWebKit/537.36 (KHTML, like Gecko) Chrome/107.0.0.0 Safari/537.36","WebKit","Chrome","107.0.0.0","Windows","10.0","[0]","","14","1",""
"3260","You drop a bowling ball on a light bulb <br> T&uacute tiras una bola de boliche a una bombilla","{""Q0"":""Tú tiras una bola de boliche sobre una bombilla""}","low_rate","23921","survey-text","41","2368867","0.0-5.0-1.17-0.17","29","1","2022-11-29 21:24:55","2df368f4e41f066fd1c82c297b4a1108","187.192.4.144","Mozilla/5.0 (Windows NT 10.0; Win64; x64) AppleWebKit/537.36 (KHTML, like Gecko) Chrome/107.0.0.0 Safari/537.36","WebKit","Chrome","107.0.0.0","Windows","10.0","","","14","",""
"98751","You see how a nurse is taking a syringe <br> T&uacute ves como una enfermera est&aacute agarrando una jeringuilla","{""Q0"":1}","trial","23921","survey-likert","42","2467629","0.0-5.0-0.18","29","1","2022-11-29 21:24:55","2df368f4e41f066fd1c82c297b4a1108","187.192.4.144","Mozilla/5.0 (Windows NT 10.0; Win64; x64) AppleWebKit/537.36 (KHTML, like Gecko) Chrome/107.0.0.0 Safari/537.36","WebKit","Chrome","107.0.0.0","Windows","10.0","[0]","","48","1",""
"10774","You see how a nurse is taking a syringe <br> T&uacute ves como una enfermera est&aacute agarrando una jeringuilla","{""Q0"":""Tú ves como una enfermera está tomando una jeringa""}","low_rate","23921","survey-text","43","2478420","0.0-5.0-1.18-0.18","29","1","2022-11-29 21:24:55","2df368f4e41f066fd1c82c297b4a1108","187.192.4.144","Mozilla/5.0 (Windows NT 10.0; Win64; x64) AppleWebKit/537.36 (KHTML, like Gecko) Chrome/107.0.0.0 Safari/537.36","WebKit","Chrome","107.0.0.0","Windows","10.0","","","48","",""
"115365","You see how a photographer is taking a photo of a lion <br> T&uacute ves como un fot&oacutegrafo est&aacute tomando una foto de un le&oacuten","{""Q0"":4}","trial","23921","survey-likert","44","2593791","0.0-5.0-0.19","29","1","2022-11-29 21:24:55","2df368f4e41f066fd1c82c297b4a1108","187.192.4.144","Mozilla/5.0 (Windows NT 10.0; Win64; x64) AppleWebKit/537.36 (KHTML, like Gecko) Chrome/107.0.0.0 Safari/537.36","WebKit","Chrome","107.0.0.0","Windows","10.0","[0]","","72","4",""
"32415","You drop a towel on the TV <br> T&uacute tiras una toalla a la televisi&oacuten","{""Q0"":1}","trial","23921","survey-likert","45","2626220","0.0-5.0-0.20","29","1","2022-11-29 21:24:55","2df368f4e41f066fd1c82c297b4a1108","187.192.4.144","Mozilla/5.0 (Windows NT 10.0; Win64; x64) AppleWebKit/537.36 (KHTML, like Gecko) Chrome/107.0.0.0 Safari/537.36","WebKit","Chrome","107.0.0.0","Windows","10.0","[0]","","53","1",""
"1214","You drop a towel on the TV <br> T&uacute tiras una toalla a la televisi&oacuten","{""Q0"":""Tú tiras una toalla sobre la televisión""}","low_rate","23921","survey-text","46","2627450","0.0-5.0-1.20-0.20","29","1","2022-11-29 21:24:55","2df368f4e41f066fd1c82c297b4a1108","187.192.4.144","Mozilla/5.0 (Windows NT 10.0; Win64; x64) AppleWebKit/537.36 (KHTML, like Gecko) Chrome/107.0.0.0 Safari/537.36","WebKit","Chrome","107.0.0.0","Windows","10.0","","","53","",""
"76681","You drop a bowling ball on a rice cake <br> T&uacute tiras una bola de boliche a una tortita de arroz","{""Q0"":1}","trial","23921","survey-likert","47","2704137","0.0-5.0-0.21","29","1","2022-11-29 21:24:55","2df368f4e41f066fd1c82c297b4a1108","187.192.4.144","Mozilla/5.0 (Windows NT 10.0; Win64; x64) AppleWebKit/537.36 (KHTML, like Gecko) Chrome/107.0.0.0 Safari/537.36","WebKit","Chrome","107.0.0.0","Windows","10.0","[0]","","18","1",""
"2222","You drop a bowling ball on a rice cake <br> T&uacute tiras una bola de boliche a una tortita de arroz","{""Q0"":""Tú tiras una bola de boliche sobre un pastel de arroz""}","low_rate","23921","survey-text","48","2706379","0.0-5.0-1.21-0.21","29","1","2022-11-29 21:24:55","2df368f4e41f066fd1c82c297b4a1108","187.192.4.144","Mozilla/5.0 (Windows NT 10.0; Win64; x64) AppleWebKit/537.36 (KHTML, like Gecko) Chrome/107.0.0.0 Safari/537.36","WebKit","Chrome","107.0.0.0","Windows","10.0","","","18","",""
"24648","You see how a musician is playing a guitar <br> T&uacute ves como un m&uacutesico est&aacute tocando la guitarra","{""Q0"":3}","trial","23921","survey-likert","49","2731030","0.0-5.0-0.22","29","1","2022-11-29 21:24:55","2df368f4e41f066fd1c82c297b4a1108","187.192.4.144","Mozilla/5.0 (Windows NT 10.0; Win64; x64) AppleWebKit/537.36 (KHTML, like Gecko) Chrome/107.0.0.0 Safari/537.36","WebKit","Chrome","107.0.0.0","Windows","10.0","[0]","","27","3",""
"18170","You see how a giraffe is playing with a zebra <br> T&uacute ves como una jirafa est&aacute jugando con una cebra","{""Q0"":4}","trial","23921","survey-likert","50","2749213","0.0-5.0-0.23","29","1","2022-11-29 21:24:55","2df368f4e41f066fd1c82c297b4a1108","187.192.4.144","Mozilla/5.0 (Windows NT 10.0; Win64; x64) AppleWebKit/537.36 (KHTML, like Gecko) Chrome/107.0.0.0 Safari/537.36","WebKit","Chrome","107.0.0.0","Windows","10.0","[0]","","65","4",""
"30610","You see how a cat is drinking water from a bowl <br> T&uacute ves como un gato est&aacute bebiendo agua de un cuenco","{""Q0"":1}","trial","23921","survey-likert","51","2779837","0.0-5.0-0.24","29","1","2022-11-29 21:24:55","2df368f4e41f066fd1c82c297b4a1108","187.192.4.144","Mozilla/5.0 (Windows NT 10.0; Win64; x64) AppleWebKit/537.36 (KHTML, like Gecko) Chrome/107.0.0.0 Safari/537.36","WebKit","Chrome","107.0.0.0","Windows","10.0","[0]","","28","1",""
"1059","You see how a cat is drinking water from a bowl <br> T&uacute ves como un gato est&aacute bebiendo agua de un cuenco","{""Q0"":""Tú ves como un gato está bebiendo de un tazón""}","low_rate","23921","survey-text","52","2780914","0.0-5.0-1.24-0.24","29","1","2022-11-29 21:24:55","2df368f4e41f066fd1c82c297b4a1108","187.192.4.144","Mozilla/5.0 (Windows NT 10.0; Win64; x64) AppleWebKit/537.36 (KHTML, like Gecko) Chrome/107.0.0.0 Safari/537.36","WebKit","Chrome","107.0.0.0","Windows","10.0","","","28","",""
"87564","You see how a student is writing on a board <br> T&uacute ves como un estudiante est&aacute escribiendo en la pizarra","{""Q0"":1}","trial","23921","survey-likert","53","2868487","0.0-5.0-0.25","29","1","2022-11-29 21:24:55","2df368f4e41f066fd1c82c297b4a1108","187.192.4.144","Mozilla/5.0 (Windows NT 10.0; Win64; x64) AppleWebKit/537.36 (KHTML, like Gecko) Chrome/107.0.0.0 Safari/537.36","WebKit","Chrome","107.0.0.0","Windows","10.0","[0]","","50","1",""
"1834","You see how a student is writing on a board <br> T&uacute ves como un estudiante est&aacute escribiendo en la pizarra","{""Q0"":""Tú ves como un estudiante está escribiendo en un pizarrón""}","low_rate","23921","survey-text","54","2870340","0.0-5.0-1.25-0.25","29","1","2022-11-29 21:24:55","2df368f4e41f066fd1c82c297b4a1108","187.192.4.144","Mozilla/5.0 (Windows NT 10.0; Win64; x64) AppleWebKit/537.36 (KHTML, like Gecko) Chrome/107.0.0.0 Safari/537.36","WebKit","Chrome","107.0.0.0","Windows","10.0","","","50","",""
"13657","You see how a woman is paying with a debit card <br> T&uacute ves como una mujer est&aacute pagando con una tarjeta de d&eacutebito","{""Q0"":4}","trial","23921","survey-likert","55","2884003","0.0-5.0-0.26","29","1","2022-11-29 21:24:55","2df368f4e41f066fd1c82c297b4a1108","187.192.4.144","Mozilla/5.0 (Windows NT 10.0; Win64; x64) AppleWebKit/537.36 (KHTML, like Gecko) Chrome/107.0.0.0 Safari/537.36","WebKit","Chrome","107.0.0.0","Windows","10.0","[0]","","64","4",""
"25030","You drop a bowling ball on glasses <br> T&uacute tiras una bola de boliche a unas gafas","{""Q0"":1}","trial","23921","survey-likert","56","2909048","0.0-5.0-0.27","29","1","2022-11-29 21:24:55","2df368f4e41f066fd1c82c297b4a1108","187.192.4.144","Mozilla/5.0 (Windows NT 10.0; Win64; x64) AppleWebKit/537.36 (KHTML, like Gecko) Chrome/107.0.0.0 Safari/537.36","WebKit","Chrome","107.0.0.0","Windows","10.0","[0]","","9","1",""
"1249","You drop a bowling ball on glasses <br> T&uacute tiras una bola de boliche a unas gafas","{""Q0"":""Tú tiras una bola de boliche sobre unos lentes""}","low_rate","23921","survey-text","57","2910309","0.0-5.0-1.27-0.27","29","1","2022-11-29 21:24:55","2df368f4e41f066fd1c82c297b4a1108","187.192.4.144","Mozilla/5.0 (Windows NT 10.0; Win64; x64) AppleWebKit/537.36 (KHTML, like Gecko) Chrome/107.0.0.0 Safari/537.36","WebKit","Chrome","107.0.0.0","Windows","10.0","","","9","",""
"6143","You see how a zebra is playing with a horse <br> T&uacute ves como una cebra est&aacute jugando con un caballo","{""Q0"":4}","trial","23921","survey-likert","58","2916460","0.0-5.0-0.28","29","1","2022-11-29 21:24:55","2df368f4e41f066fd1c82c297b4a1108","187.192.4.144","Mozilla/5.0 (Windows NT 10.0; Win64; x64) AppleWebKit/537.36 (KHTML, like Gecko) Chrome/107.0.0.0 Safari/537.36","WebKit","Chrome","107.0.0.0","Windows","10.0","[0]","","66","4",""
"20945","You drop a fork on the plate <br> T&uacute tiras un tenedor al plato","{""Q0"":1}","trial","23921","survey-likert","59","2937421","0.0-5.0-0.29","29","1","2022-11-29 21:24:55","2df368f4e41f066fd1c82c297b4a1108","187.192.4.144","Mozilla/5.0 (Windows NT 10.0; Win64; x64) AppleWebKit/537.36 (KHTML, like Gecko) Chrome/107.0.0.0 Safari/537.36","WebKit","Chrome","107.0.0.0","Windows","10.0","[0]","","26","1",""
"1018","You drop a fork on the plate <br> T&uacute tiras un tenedor al plato","{""Q0"":""Tú tiras un tenedor sobre el plato""}","low_rate","23921","survey-text","60","2938456","0.0-5.0-1.29-0.29","29","1","2022-11-29 21:24:55","2df368f4e41f066fd1c82c297b4a1108","187.192.4.144","Mozilla/5.0 (Windows NT 10.0; Win64; x64) AppleWebKit/537.36 (KHTML, like Gecko) Chrome/107.0.0.0 Safari/537.36","WebKit","Chrome","107.0.0.0","Windows","10.0","","","26","",""
"20510","You drop a bowling ball on a hat <br> T&uacute tiras una bola de boliche a una gorra","{""Q0"":1}","trial","23921","survey-likert","61","2958974","0.0-5.0-0.30","29","1","2022-11-29 21:24:55","2df368f4e41f066fd1c82c297b4a1108","187.192.4.144","Mozilla/5.0 (Windows NT 10.0; Win64; x64) AppleWebKit/537.36 (KHTML, like Gecko) Chrome/107.0.0.0 Safari/537.36","WebKit","Chrome","107.0.0.0","Windows","10.0","[0]","","10","1",""
"3041","You drop a bowling ball on a hat <br> T&uacute tiras una bola de boliche a una gorra","{""Q0"":""Tú tiras una bola de boliche sobre un sombrero""}","low_rate","23921","survey-text","62","2962034","0.0-5.0-1.30-0.30","29","1","2022-11-29 21:24:55","2df368f4e41f066fd1c82c297b4a1108","187.192.4.144","Mozilla/5.0 (Windows NT 10.0; Win64; x64) AppleWebKit/537.36 (KHTML, like Gecko) Chrome/107.0.0.0 Safari/537.36","WebKit","Chrome","107.0.0.0","Windows","10.0","","","10","",""
"96451","You drop a needle on the mouse pad <br> T&uacute tiras una aguja a la alfombrilla para el rat&oacuten","{""Q0"":1}","trial","23921","survey-likert","63","3058494","0.0-5.0-0.31","29","1","2022-11-29 21:24:55","2df368f4e41f066fd1c82c297b4a1108","187.192.4.144","Mozilla/5.0 (Windows NT 10.0; Win64; x64) AppleWebKit/537.36 (KHTML, like Gecko) Chrome/107.0.0.0 Safari/537.36","WebKit","Chrome","107.0.0.0","Windows","10.0","[0]","","42","1",""
"1066","You drop a needle on the mouse pad <br> T&uacute tiras una aguja a la alfombrilla para el rat&oacuten","{""Q0"":""Tú tiras una aguja sobre la alfombrilla de ratón""}","low_rate","23921","survey-text","64","3059578","0.0-5.0-1.31-0.31","29","1","2022-11-29 21:24:55","2df368f4e41f066fd1c82c297b4a1108","187.192.4.144","Mozilla/5.0 (Windows NT 10.0; Win64; x64) AppleWebKit/537.36 (KHTML, like Gecko) Chrome/107.0.0.0 Safari/537.36","WebKit","Chrome","107.0.0.0","Windows","10.0","","","42","",""
"37793","You see how a police officer is talking on the phone <br> T&uacute ves como un polic&iacutea est&aacute hablando por el tel&eacutefono","{""Q0"":1}","trial","23921","survey-likert","65","3097382","0.0-5.0-0.32","29","1","2022-11-29 21:24:55","2df368f4e41f066fd1c82c297b4a1108","187.192.4.144","Mozilla/5.0 (Windows NT 10.0; Win64; x64) AppleWebKit/537.36 (KHTML, like Gecko) Chrome/107.0.0.0 Safari/537.36","WebKit","Chrome","107.0.0.0","Windows","10.0","[0]","","62","1",""
"2353","You see how a police officer is talking on the phone <br> T&uacute ves como un polic&iacutea est&aacute hablando por el tel&eacutefono","{""Q0"":""Tú ves como un oficial de policía está hablando por teléfono""}","low_rate","23921","survey-text","66","3099754","0.0-5.0-1.32-0.32","29","1","2022-11-29 21:24:55","2df368f4e41f066fd1c82c297b4a1108","187.192.4.144","Mozilla/5.0 (Windows NT 10.0; Win64; x64) AppleWebKit/537.36 (KHTML, like Gecko) Chrome/107.0.0.0 Safari/537.36","WebKit","Chrome","107.0.0.0","Windows","10.0","","","62","",""
"55232","You see how a woman is taking money out of a wallet <br> T&uacute ves como una mujer est&aacute sacando dinero de su billetera","{""Q0"":1}","trial","23921","survey-likert","67","3154995","0.0-5.0-0.33","29","1","2022-11-29 21:24:55","2df368f4e41f066fd1c82c297b4a1108","187.192.4.144","Mozilla/5.0 (Windows NT 10.0; Win64; x64) AppleWebKit/537.36 (KHTML, like Gecko) Chrome/107.0.0.0 Safari/537.36","WebKit","Chrome","107.0.0.0","Windows","10.0","[0]","","44","1",""
"1120","You see how a woman is taking money out of a wallet <br> T&uacute ves como una mujer est&aacute sacando dinero de su billetera","{""Q0"":""Tú ves como una mujer está sacando dinero de una cartera""}","low_rate","23921","survey-text","68","3156131","0.0-5.0-1.33-0.33","29","1","2022-11-29 21:24:55","2df368f4e41f066fd1c82c297b4a1108","187.192.4.144","Mozilla/5.0 (Windows NT 10.0; Win64; x64) AppleWebKit/537.36 (KHTML, like Gecko) Chrome/107.0.0.0 Safari/537.36","WebKit","Chrome","107.0.0.0","Windows","10.0","","","44","",""
"13574","You drop a keyboard on the bed <br> T&uacute tiras un teclado a la cama","{""Q0"":1}","trial","23921","survey-likert","69","3169719","0.0-5.0-0.34","29","1","2022-11-29 21:24:55","2df368f4e41f066fd1c82c297b4a1108","187.192.4.144","Mozilla/5.0 (Windows NT 10.0; Win64; x64) AppleWebKit/537.36 (KHTML, like Gecko) Chrome/107.0.0.0 Safari/537.36","WebKit","Chrome","107.0.0.0","Windows","10.0","[0]","","36","1",""
"913","You drop a keyboard on the bed <br> T&uacute tiras un teclado a la cama","{""Q0"":""Tú tiras un teclado sobre la cama""}","low_rate","23921","survey-text","70","3170650","0.0-5.0-1.34-0.34","29","1","2022-11-29 21:24:55","2df368f4e41f066fd1c82c297b4a1108","187.192.4.144","Mozilla/5.0 (Windows NT 10.0; Win64; x64) AppleWebKit/537.36 (KHTML, like Gecko) Chrome/107.0.0.0 Safari/537.36","WebKit","Chrome","107.0.0.0","Windows","10.0","","","36","",""
"30145","You see how a horse is chewing hay <br> T&uacute ves como un caballo est&aacute masticando el heno","{""Q0"":1}","trial","23921","survey-likert","71","3200803","0.0-5.0-0.35","29","1","2022-11-29 21:24:55","2df368f4e41f066fd1c82c297b4a1108","187.192.4.144","Mozilla/5.0 (Windows NT 10.0; Win64; x64) AppleWebKit/537.36 (KHTML, like Gecko) Chrome/107.0.0.0 Safari/537.36","WebKit","Chrome","107.0.0.0","Windows","10.0","[0]","","55","1",""
"1539","You see how a horse is chewing hay <br> T&uacute ves como un caballo est&aacute masticando el heno","{""Q0"":""Tú ves como un caballo está masticando heno""}","low_rate","23921","survey-text","72","3202360","0.0-5.0-1.35-0.35","29","1","2022-11-29 21:24:55","2df368f4e41f066fd1c82c297b4a1108","187.192.4.144","Mozilla/5.0 (Windows NT 10.0; Win64; x64) AppleWebKit/537.36 (KHTML, like Gecko) Chrome/107.0.0.0 Safari/537.36","WebKit","Chrome","107.0.0.0","Windows","10.0","","","55","",""
"45164","You drop a bowling ball on a tile <br> T&uacute tiras una bola de boliche a una baldosa","{""Q0"":1}","trial","23921","survey-likert","73","3247529","0.0-5.0-0.36","29","1","2022-11-29 21:24:55","2df368f4e41f066fd1c82c297b4a1108","187.192.4.144","Mozilla/5.0 (Windows NT 10.0; Win64; x64) AppleWebKit/537.36 (KHTML, like Gecko) Chrome/107.0.0.0 Safari/537.36","WebKit","Chrome","107.0.0.0","Windows","10.0","[0]","","22","1",""
"1059","You drop a bowling ball on a tile <br> T&uacute tiras una bola de boliche a una baldosa","{""Q0"":""Tú tiras una bola de boliche sobre un azulejo""}","low_rate","23921","survey-text","74","3248610","0.0-5.0-1.36-0.36","29","1","2022-11-29 21:24:55","2df368f4e41f066fd1c82c297b4a1108","187.192.4.144","Mozilla/5.0 (Windows NT 10.0; Win64; x64) AppleWebKit/537.36 (KHTML, like Gecko) Chrome/107.0.0.0 Safari/537.36","WebKit","Chrome","107.0.0.0","Windows","10.0","","","22","",""
"44203","You see how an astronaut is putting on a space suit <br> T&uacute ves como un astronauta se est&aacute poniendo su traje espacial","{""Q0"":2}","trial","23921","survey-likert","75","3292825","0.0-5.0-0.37","29","1","2022-11-29 21:24:55","2df368f4e41f066fd1c82c297b4a1108","187.192.4.144","Mozilla/5.0 (Windows NT 10.0; Win64; x64) AppleWebKit/537.36 (KHTML, like Gecko) Chrome/107.0.0.0 Safari/537.36","WebKit","Chrome","107.0.0.0","Windows","10.0","[0]","","33","2",""
"29850","You drop a bowling ball on a tomato <br> T&uacute tiras una bola de boliche a un tomate","{""Q0"":1}","trial","23921","survey-likert","76","3322693","0.0-5.0-0.38","29","1","2022-11-29 21:24:55","2df368f4e41f066fd1c82c297b4a1108","187.192.4.144","Mozilla/5.0 (Windows NT 10.0; Win64; x64) AppleWebKit/537.36 (KHTML, like Gecko) Chrome/107.0.0.0 Safari/537.36","WebKit","Chrome","107.0.0.0","Windows","10.0","[0]","","23","1",""
"1776","You drop a bowling ball on a tomato <br> T&uacute tiras una bola de boliche a un tomate","{""Q0"":""Tú tiras una bola de boliche sobre un tomate""}","low_rate","23921","survey-text","77","3324489","0.0-5.0-1.38-0.38","29","1","2022-11-29 21:24:55","2df368f4e41f066fd1c82c297b4a1108","187.192.4.144","Mozilla/5.0 (Windows NT 10.0; Win64; x64) AppleWebKit/537.36 (KHTML, like Gecko) Chrome/107.0.0.0 Safari/537.36","WebKit","Chrome","107.0.0.0","Windows","10.0","","","23","",""
"17481","You drop a bowling ball on a cracker <br> T&uacute tiras una bola de boliche a una galleta","{""Q0"":1}","trial","23921","survey-likert","78","3341981","0.0-5.0-0.39","29","1","2022-11-29 21:24:55","2df368f4e41f066fd1c82c297b4a1108","187.192.4.144","Mozilla/5.0 (Windows NT 10.0; Win64; x64) AppleWebKit/537.36 (KHTML, like Gecko) Chrome/107.0.0.0 Safari/537.36","WebKit","Chrome","107.0.0.0","Windows","10.0","[0]","","4","1",""
"921","You drop a bowling ball on a cracker <br> T&uacute tiras una bola de boliche a una galleta","{""Q0"":""Tú tiras una bola de boliche sobre una galleta""}","low_rate","23921","survey-text","79","3342920","0.0-5.0-1.39-0.39","29","1","2022-11-29 21:24:55","2df368f4e41f066fd1c82c297b4a1108","187.192.4.144","Mozilla/5.0 (Windows NT 10.0; Win64; x64) AppleWebKit/537.36 (KHTML, like Gecko) Chrome/107.0.0.0 Safari/537.36","WebKit","Chrome","107.0.0.0","Windows","10.0","","","4","",""
"14897","You see how a mouse is eating cheese <br> T&uacute ves como el rat&oacuten est&aacute comiendo queso","{""Q0"":2}","trial","23921","survey-likert","80","3357826","0.0-5.0-0.40","29","1","2022-11-29 21:24:55","2df368f4e41f066fd1c82c297b4a1108","187.192.4.144","Mozilla/5.0 (Windows NT 10.0; Win64; x64) AppleWebKit/537.36 (KHTML, like Gecko) Chrome/107.0.0.0 Safari/537.36","WebKit","Chrome","107.0.0.0","Windows","10.0","[0]","","56","2",""
"12640","You drop a bowling ball on a donut <br> T&uacute tiras una bola de boliche a una rosquilla","{""Q0"":1}","trial","23921","survey-likert","81","3370484","0.0-5.0-0.41","29","1","2022-11-29 21:24:55","2df368f4e41f066fd1c82c297b4a1108","187.192.4.144","Mozilla/5.0 (Windows NT 10.0; Win64; x64) AppleWebKit/537.36 (KHTML, like Gecko) Chrome/107.0.0.0 Safari/537.36","WebKit","Chrome","107.0.0.0","Windows","10.0","[0]","","17","1",""
"1126","You drop a bowling ball on a donut <br> T&uacute tiras una bola de boliche a una rosquilla","{""Q0"":""Tú tiras una bola de boliche sobre una dona""}","low_rate","23921","survey-text","82","3371631","0.0-5.0-1.41-0.41","29","1","2022-11-29 21:24:55","2df368f4e41f066fd1c82c297b4a1108","187.192.4.144","Mozilla/5.0 (Windows NT 10.0; Win64; x64) AppleWebKit/537.36 (KHTML, like Gecko) Chrome/107.0.0.0 Safari/537.36","WebKit","Chrome","107.0.0.0","Windows","10.0","","","17","",""
"9382","You see how a man is playing with a cat <br> T&uacute ves como un hombre est&aacute jugando con un gato","{""Q0"":4}","trial","23921","survey-likert","83","3381024","0.0-5.0-0.42","29","1","2022-11-29 21:24:55","2df368f4e41f066fd1c82c297b4a1108","187.192.4.144","Mozilla/5.0 (Windows NT 10.0; Win64; x64) AppleWebKit/537.36 (KHTML, like Gecko) Chrome/107.0.0.0 Safari/537.36","WebKit","Chrome","107.0.0.0","Windows","10.0","[0]","","67","4",""
"15936","You drop a bowling ball on a chocolate ice-cream <br> T&uacute tiras una bola de boliche a un helado de chocolate","{""Q0"":1}","trial","23921","survey-likert","84","3396978","0.0-5.0-0.43","29","1","2022-11-29 21:24:55","2df368f4e41f066fd1c82c297b4a1108","187.192.4.144","Mozilla/5.0 (Windows NT 10.0; Win64; x64) AppleWebKit/537.36 (KHTML, like Gecko) Chrome/107.0.0.0 Safari/537.36","WebKit","Chrome","107.0.0.0","Windows","10.0","[0]","","11","1",""
"1092","You drop a bowling ball on a chocolate ice-cream <br> T&uacute tiras una bola de boliche a un helado de chocolate","{""Q0"":""Tú tiras una bola de boliche sobre un helado de chocolate""}","low_rate","23921","survey-text","85","3398092","0.0-5.0-1.43-0.43","29","1","2022-11-29 21:24:55","2df368f4e41f066fd1c82c297b4a1108","187.192.4.144","Mozilla/5.0 (Windows NT 10.0; Win64; x64) AppleWebKit/537.36 (KHTML, like Gecko) Chrome/107.0.0.0 Safari/537.36","WebKit","Chrome","107.0.0.0","Windows","10.0","","","11","",""
"12647","You see how a panda is resting on a tree <br> T&uacute ves como un panda est&aacute descansando en un &aacuterbol","{""Q0"":2}","trial","23921","survey-likert","86","3410747","0.0-5.0-0.44","29","1","2022-11-29 21:24:55","2df368f4e41f066fd1c82c297b4a1108","187.192.4.144","Mozilla/5.0 (Windows NT 10.0; Win64; x64) AppleWebKit/537.36 (KHTML, like Gecko) Chrome/107.0.0.0 Safari/537.36","WebKit","Chrome","107.0.0.0","Windows","10.0","[0]","","57","2",""
"14747","You drop a cushion on the magazine <br> T&uacute tiras un coj&iacuten a la revista","{""Q0"":1}","trial","23921","survey-likert","87","3425511","0.0-5.0-0.45","29","1","2022-11-29 21:24:55","2df368f4e41f066fd1c82c297b4a1108","187.192.4.144","Mozilla/5.0 (Windows NT 10.0; Win64; x64) AppleWebKit/537.36 (KHTML, like Gecko) Chrome/107.0.0.0 Safari/537.36","WebKit","Chrome","107.0.0.0","Windows","10.0","[0]","","38","1",""
"910","You drop a cushion on the magazine <br> T&uacute tiras un coj&iacuten a la revista","{""Q0"":""Tú tiras un cojín sobre una revista""}","low_rate","23921","survey-text","88","3426441","0.0-5.0-1.45-0.45","29","1","2022-11-29 21:24:55","2df368f4e41f066fd1c82c297b4a1108","187.192.4.144","Mozilla/5.0 (Windows NT 10.0; Win64; x64) AppleWebKit/537.36 (KHTML, like Gecko) Chrome/107.0.0.0 Safari/537.36","WebKit","Chrome","107.0.0.0","Windows","10.0","","","38","",""
"8692","You see how an owl is sitting on the branch <br> T&uacute ves como un b&uacuteho est&aacute reposando en una rama","{""Q0"":3}","trial","23921","survey-likert","89","3435143","0.0-5.0-0.46","29","1","2022-11-29 21:24:55","2df368f4e41f066fd1c82c297b4a1108","187.192.4.144","Mozilla/5.0 (Windows NT 10.0; Win64; x64) AppleWebKit/537.36 (KHTML, like Gecko) Chrome/107.0.0.0 Safari/537.36","WebKit","Chrome","107.0.0.0","Windows","10.0","[0]","","69","3",""
"9668","You drop a bowling ball on a chocolate muffin <br> T&uacute tiras una bola de boliche a una magdalena de chocolate","{""Q0"":3}","trial","23921","survey-likert","90","3444830","0.0-5.0-0.47","29","1","2022-11-29 21:24:55","2df368f4e41f066fd1c82c297b4a1108","187.192.4.144","Mozilla/5.0 (Windows NT 10.0; Win64; x64) AppleWebKit/537.36 (KHTML, like Gecko) Chrome/107.0.0.0 Safari/537.36","WebKit","Chrome","107.0.0.0","Windows","10.0","[0]","","16","3",""
"7832","You drop a bowling ball on a porcelain figure <br> T&uacute tiras una bola de boliche a una figura de porcelana","{""Q0"":2}","trial","23921","survey-likert","91","3452680","0.0-5.0-0.48","29","1","2022-11-29 21:24:55","2df368f4e41f066fd1c82c297b4a1108","187.192.4.144","Mozilla/5.0 (Windows NT 10.0; Win64; x64) AppleWebKit/537.36 (KHTML, like Gecko) Chrome/107.0.0.0 Safari/537.36","WebKit","Chrome","107.0.0.0","Windows","10.0","[0]","","1","2",""
"6264","You see how a donkey is drinking water <br> T&uacute ves como un burro est&aacute bebiendo agua","{""Q0"":4}","trial","23921","survey-likert","92","3458963","0.0-5.0-0.49","29","1","2022-11-29 21:24:55","2df368f4e41f066fd1c82c297b4a1108","187.192.4.144","Mozilla/5.0 (Windows NT 10.0; Win64; x64) AppleWebKit/537.36 (KHTML, like Gecko) Chrome/107.0.0.0 Safari/537.36","WebKit","Chrome","107.0.0.0","Windows","10.0","[0]","","45","4",""
"28353","You drop a bowling ball on a paper cup <br> T&uacute tiras una bola de boliche a un vaso de papel","{""Q0"":1}","trial","23921","survey-likert","93","3487335","0.0-5.0-0.50","29","1","2022-11-29 21:24:55","2df368f4e41f066fd1c82c297b4a1108","187.192.4.144","Mozilla/5.0 (Windows NT 10.0; Win64; x64) AppleWebKit/537.36 (KHTML, like Gecko) Chrome/107.0.0.0 Safari/537.36","WebKit","Chrome","107.0.0.0","Windows","10.0","[0]","","24","1",""
"1407","You drop a bowling ball on a paper cup <br> T&uacute tiras una bola de boliche a un vaso de papel","{""Q0"":""Tú tiras una bola de boliche sobre un vaso de papel""}","low_rate","23921","survey-text","94","3488763","0.0-5.0-1.50-0.50","29","1","2022-11-29 21:24:55","2df368f4e41f066fd1c82c297b4a1108","187.192.4.144","Mozilla/5.0 (Windows NT 10.0; Win64; x64) AppleWebKit/537.36 (KHTML, like Gecko) Chrome/107.0.0.0 Safari/537.36","WebKit","Chrome","107.0.0.0","Windows","10.0","","","24","",""
"12378","You drop a thermometer on the box <br> T&uacute tiras un term&oacutemetro a la caja","{""Q0"":2}","trial","23921","survey-likert","95","3501152","0.0-5.0-0.51","29","1","2022-11-29 21:24:55","2df368f4e41f066fd1c82c297b4a1108","187.192.4.144","Mozilla/5.0 (Windows NT 10.0; Win64; x64) AppleWebKit/537.36 (KHTML, like Gecko) Chrome/107.0.0.0 Safari/537.36","WebKit","Chrome","107.0.0.0","Windows","10.0","[0]","","70","2",""
"5607","You drop a bowling ball on a mirror <br> T&uacute tiras una bola de boliche a un espejo","{""Q0"":2}","trial","23921","survey-likert","96","3506778","0.0-5.0-0.52","29","1","2022-11-29 21:24:55","2df368f4e41f066fd1c82c297b4a1108","187.192.4.144","Mozilla/5.0 (Windows NT 10.0; Win64; x64) AppleWebKit/537.36 (KHTML, like Gecko) Chrome/107.0.0.0 Safari/537.36","WebKit","Chrome","107.0.0.0","Windows","10.0","[0]","","15","2",""
"34856","You see how an old man is hammering a nail <br> T&uacute ves como un hombre anciano est&aacute martillando un clavo","{""Q0"":2}","trial","23921","survey-likert","97","3541654","0.0-5.0-0.53","29","1","2022-11-29 21:24:55","2df368f4e41f066fd1c82c297b4a1108","187.192.4.144","Mozilla/5.0 (Windows NT 10.0; Win64; x64) AppleWebKit/537.36 (KHTML, like Gecko) Chrome/107.0.0.0 Safari/537.36","WebKit","Chrome","107.0.0.0","Windows","10.0","[0]","","29","2",""
"3560","You drop a bowling ball on an iPhone <br> T&uacute tiras una bola de boliche a un iPhone","{""Q0"":2}","trial","23921","survey-likert","98","3545234","0.0-5.0-0.54","29","1","2022-11-29 21:24:55","2df368f4e41f066fd1c82c297b4a1108","187.192.4.144","Mozilla/5.0 (Windows NT 10.0; Win64; x64) AppleWebKit/537.36 (KHTML, like Gecko) Chrome/107.0.0.0 Safari/537.36","WebKit","Chrome","107.0.0.0","Windows","10.0","[0]","","13","2",""
"22261","You drop a bowling ball on an egg <br> T&uacute tiras una bola de boliche a un huevo","{""Q0"":1}","trial","23921","survey-likert","99","3567514","0.0-5.0-0.55","29","1","2022-11-29 21:24:55","2df368f4e41f066fd1c82c297b4a1108","187.192.4.144","Mozilla/5.0 (Windows NT 10.0; Win64; x64) AppleWebKit/537.36 (KHTML, like Gecko) Chrome/107.0.0.0 Safari/537.36","WebKit","Chrome","107.0.0.0","Windows","10.0","[0]","","6","1",""
"793","You drop a bowling ball on an egg <br> T&uacute tiras una bola de boliche a un huevo","{""Q0"":""Tú tiras una bola de boliche sobre un huevo""}","low_rate","23921","survey-text","100","3568328","0.0-5.0-1.55-0.55","29","1","2022-11-29 21:24:55","2df368f4e41f066fd1c82c297b4a1108","187.192.4.144","Mozilla/5.0 (Windows NT 10.0; Win64; x64) AppleWebKit/537.36 (KHTML, like Gecko) Chrome/107.0.0.0 Safari/537.36","WebKit","Chrome","107.0.0.0","Windows","10.0","","","6","",""
"7099","You see how an elephant is eating a watermelon <br> T&uacute ves como un elefante est&aacute comiendo una sand&iacutea","{""Q0"":4}","trial","23921","survey-likert","101","3575439","0.0-5.0-0.56","29","1","2022-11-29 21:24:55","2df368f4e41f066fd1c82c297b4a1108","187.192.4.144","Mozilla/5.0 (Windows NT 10.0; Win64; x64) AppleWebKit/537.36 (KHTML, like Gecko) Chrome/107.0.0.0 Safari/537.36","WebKit","Chrome","107.0.0.0","Windows","10.0","[0]","","31","4",""
"6852","You see how a postman is driving a car <br> T&uacute ves como un cartero est&aacute conduciendo un coche","{""Q0"":4}","trial","23921","survey-likert","102","3582308","0.0-5.0-0.57","29","1","2022-11-29 21:24:55","2df368f4e41f066fd1c82c297b4a1108","187.192.4.144","Mozilla/5.0 (Windows NT 10.0; Win64; x64) AppleWebKit/537.36 (KHTML, like Gecko) Chrome/107.0.0.0 Safari/537.36","WebKit","Chrome","107.0.0.0","Windows","10.0","[0]","","32","4",""
"5732","You see how a parrot is eating an apple <br> T&uacute ves como un loro est&aacute comiendo una manzana","{""Q0"":4}","trial","23921","survey-likert","103","3588061","0.0-5.0-0.58","29","1","2022-11-29 21:24:55","2df368f4e41f066fd1c82c297b4a1108","187.192.4.144","Mozilla/5.0 (Windows NT 10.0; Win64; x64) AppleWebKit/537.36 (KHTML, like Gecko) Chrome/107.0.0.0 Safari/537.36","WebKit","Chrome","107.0.0.0","Windows","10.0","[0]","","58","4",""
"18525","You drop a bowling ball on a wine glass <br> T&uacute tiras una bola de boliche a una copa de vino","{""Q0"":1}","trial","23921","survey-likert","104","3606606","0.0-5.0-0.59","29","1","2022-11-29 21:24:55","2df368f4e41f066fd1c82c297b4a1108","187.192.4.144","Mozilla/5.0 (Windows NT 10.0; Win64; x64) AppleWebKit/537.36 (KHTML, like Gecko) Chrome/107.0.0.0 Safari/537.36","WebKit","Chrome","107.0.0.0","Windows","10.0","[0]","","5","1",""
"868","You drop a bowling ball on a wine glass <br> T&uacute tiras una bola de boliche a una copa de vino","{""Q0"":""Tú tiras una bola de boliche sobre una copa de vino""}","low_rate","23921","survey-text","105","3607497","0.0-5.0-1.59-0.59","29","1","2022-11-29 21:24:55","2df368f4e41f066fd1c82c297b4a1108","187.192.4.144","Mozilla/5.0 (Windows NT 10.0; Win64; x64) AppleWebKit/537.36 (KHTML, like Gecko) Chrome/107.0.0.0 Safari/537.36","WebKit","Chrome","107.0.0.0","Windows","10.0","","","5","",""
"16223","You drop a ring on the newspaper <br> T&uacute tiras un anillo al peri&oacutedico","{""Q0"":1}","trial","23921","survey-likert","106","3623731","0.0-5.0-0.60","29","1","2022-11-29 21:24:55","2df368f4e41f066fd1c82c297b4a1108","187.192.4.144","Mozilla/5.0 (Windows NT 10.0; Win64; x64) AppleWebKit/537.36 (KHTML, like Gecko) Chrome/107.0.0.0 Safari/537.36","WebKit","Chrome","107.0.0.0","Windows","10.0","[0]","","41","1",""
"1131","You drop a ring on the newspaper <br> T&uacute tiras un anillo al peri&oacutedico","{""Q0"":""Tú tiras un anillo sobre el periódico""}","low_rate","23921","survey-text","107","3624884","0.0-5.0-1.60-0.60","29","1","2022-11-29 21:24:55","2df368f4e41f066fd1c82c297b4a1108","187.192.4.144","Mozilla/5.0 (Windows NT 10.0; Win64; x64) AppleWebKit/537.36 (KHTML, like Gecko) Chrome/107.0.0.0 Safari/537.36","WebKit","Chrome","107.0.0.0","Windows","10.0","","","41","",""
"10359","You see how a dentist is drinking a can of cola <br> T&uacute ves como un dentista est&aacute bebiendo una lata de cola","{""Q0"":2}","trial","23921","survey-likert","108","3635255","0.0-5.0-0.61","29","1","2022-11-29 21:24:55","2df368f4e41f066fd1c82c297b4a1108","187.192.4.144","Mozilla/5.0 (Windows NT 10.0; Win64; x64) AppleWebKit/537.36 (KHTML, like Gecko) Chrome/107.0.0.0 Safari/537.36","WebKit","Chrome","107.0.0.0","Windows","10.0","[0]","","47","2",""
"11540","You drop a cabbage on the table <br> T&uacute tiras una col a la mesa","{""Q0"":2}","trial","23921","survey-likert","109","3646817","0.0-5.0-0.62","29","1","2022-11-29 21:24:55","2df368f4e41f066fd1c82c297b4a1108","187.192.4.144","Mozilla/5.0 (Windows NT 10.0; Win64; x64) AppleWebKit/537.36 (KHTML, like Gecko) Chrome/107.0.0.0 Safari/537.36","WebKit","Chrome","107.0.0.0","Windows","10.0","[0]","","35","2",""
"6837","You see how a butterfly is sitting on a flower <br> T&uacute ves como una mariposa est&aacute reposando en una flor","{""Q0"":2}","trial","23921","survey-likert","110","3653667","0.0-5.0-0.63","29","1","2022-11-29 21:24:55","2df368f4e41f066fd1c82c297b4a1108","187.192.4.144","Mozilla/5.0 (Windows NT 10.0; Win64; x64) AppleWebKit/537.36 (KHTML, like Gecko) Chrome/107.0.0.0 Safari/537.36","WebKit","Chrome","107.0.0.0","Windows","10.0","[0]","","59","2",""
"10135","You drop a bowling ball on a strawberry <br> T&uacute tiras una bola de boliche a una fresa","{""Q0"":2}","trial","23921","survey-likert","111","3663825","0.0-5.0-0.64","29","1","2022-11-29 21:24:55","2df368f4e41f066fd1c82c297b4a1108","187.192.4.144","Mozilla/5.0 (Windows NT 10.0; Win64; x64) AppleWebKit/537.36 (KHTML, like Gecko) Chrome/107.0.0.0 Safari/537.36","WebKit","Chrome","107.0.0.0","Windows","10.0","[0]","","20","2",""
"21589","You drop a watch on the laptop <br> T&uacute tiras un reloj al port&aacutetil","{""Q0"":1}","trial","23921","survey-likert","112","3685430","0.0-5.0-0.65","29","1","2022-11-29 21:24:55","2df368f4e41f066fd1c82c297b4a1108","187.192.4.144","Mozilla/5.0 (Windows NT 10.0; Win64; x64) AppleWebKit/537.36 (KHTML, like Gecko) Chrome/107.0.0.0 Safari/537.36","WebKit","Chrome","107.0.0.0","Windows","10.0","[0]","","37","1",""
"907","You drop a watch on the laptop <br> T&uacute tiras un reloj al port&aacutetil","{""Q0"":""""}","low_rate","23921","survey-text","113","3686358","0.0-5.0-1.65-0.65","29","1","2022-11-29 21:24:55","2df368f4e41f066fd1c82c297b4a1108","187.192.4.144","Mozilla/5.0 (Windows NT 10.0; Win64; x64) AppleWebKit/537.36 (KHTML, like Gecko) Chrome/107.0.0.0 Safari/537.36","WebKit","Chrome","107.0.0.0","Windows","10.0","","","37","",""
"13888","You drop a bowling ball on a ceramic plate <br> T&uacute tiras una bola de boliche a un plato de cer&aacutemica","{""Q0"":2}","trial","23921","survey-likert","114","3700260","0.0-5.0-0.66","29","1","2022-11-29 21:24:55","2df368f4e41f066fd1c82c297b4a1108","187.192.4.144","Mozilla/5.0 (Windows NT 10.0; Win64; x64) AppleWebKit/537.36 (KHTML, like Gecko) Chrome/107.0.0.0 Safari/537.36","WebKit","Chrome","107.0.0.0","Windows","10.0","[0]","","19","2",""
"28081","You drop a bowling ball on an iPAD <br> T&uacute tiras una bola de boliche a un iPad","{""Q0"":2}","trial","23921","survey-likert","115","3728362","0.0-5.0-0.67","29","1","2022-11-29 21:24:55","2df368f4e41f066fd1c82c297b4a1108","187.192.4.144","Mozilla/5.0 (Windows NT 10.0; Win64; x64) AppleWebKit/537.36 (KHTML, like Gecko) Chrome/107.0.0.0 Safari/537.36","WebKit","Chrome","107.0.0.0","Windows","10.0","[0]","","12","2",""
"8349","You see how a boy is peeling a banana <br> T&uacute ves como un ni&ntildeo est&aacute pelando una banana","{""Q0"":3}","trial","23921","survey-likert","116","3736732","0.0-5.0-0.68","29","1","2022-11-29 21:24:55","2df368f4e41f066fd1c82c297b4a1108","187.192.4.144","Mozilla/5.0 (Windows NT 10.0; Win64; x64) AppleWebKit/537.36 (KHTML, like Gecko) Chrome/107.0.0.0 Safari/537.36","WebKit","Chrome","107.0.0.0","Windows","10.0","[0]","","30","3",""
"7883","You see how a puppy is playing with a ball <br> T&uacute ves como un cachorro est&aacute jugando con una pelota","{""Q0"":4}","trial","23921","survey-likert","117","3744636","0.0-5.0-0.69","29","1","2022-11-29 21:24:55","2df368f4e41f066fd1c82c297b4a1108","187.192.4.144","Mozilla/5.0 (Windows NT 10.0; Win64; x64) AppleWebKit/537.36 (KHTML, like Gecko) Chrome/107.0.0.0 Safari/537.36","WebKit","Chrome","107.0.0.0","Windows","10.0","[0]","","34","4",""
"48926","You drop a bowling ball on a blackberry <br> T&uacute tiras una bola de boliche a una mora","{""Q0"":1}","trial","23921","survey-likert","118","3793579","0.0-5.0-0.70","29","1","2022-11-29 21:24:55","2df368f4e41f066fd1c82c297b4a1108","187.192.4.144","Mozilla/5.0 (Windows NT 10.0; Win64; x64) AppleWebKit/537.36 (KHTML, like Gecko) Chrome/107.0.0.0 Safari/537.36","WebKit","Chrome","107.0.0.0","Windows","10.0","[0]","","8","1",""
"974","You drop a bowling ball on a blackberry <br> T&uacute tiras una bola de boliche a una mora","{""Q0"":""Tú tiras una bola de boliche sobre una mora""}","low_rate","23921","survey-text","119","3794576","0.0-5.0-1.70-0.70","29","1","2022-11-29 21:24:55","2df368f4e41f066fd1c82c297b4a1108","187.192.4.144","Mozilla/5.0 (Windows NT 10.0; Win64; x64) AppleWebKit/537.36 (KHTML, like Gecko) Chrome/107.0.0.0 Safari/537.36","WebKit","Chrome","107.0.0.0","Windows","10.0","","","8","",""
"6164","You see how a kitten is playing in the sandbox <br> T&uacute ves como un gatito est&aacute jugando en la caja de arena","{""Q0"":4}","trial","23921","survey-likert","120","3800763","0.0-5.0-0.71","29","1","2022-11-29 21:24:55","2df368f4e41f066fd1c82c297b4a1108","187.192.4.144","Mozilla/5.0 (Windows NT 10.0; Win64; x64) AppleWebKit/537.36 (KHTML, like Gecko) Chrome/107.0.0.0 Safari/537.36","WebKit","Chrome","107.0.0.0","Windows","10.0","[0]","","52","4",""
"4159","
    <p style=""font-size:20px;""> You have completed the experiment portion! </p>
    <p style=""font-size:20px;""> Before you are done, we would like you to answer some basic demographic questions. </p>
    <p style=""font-size:20px;""> Note that your answers to these questions will not affect your compensation/credit. </p>
    <p style=""font-size:20px;""> Click the button below to continue.</p>
    ","0","demo","23921","html-button-response","121","3804945","0.0-6.0","29","1","2022-11-29 21:24:55","2df368f4e41f066fd1c82c297b4a1108","187.192.4.144","Mozilla/5.0 (Windows NT 10.0; Win64; x64) AppleWebKit/537.36 (KHTML, like Gecko) Chrome/107.0.0.0 Safari/537.36","WebKit","Chrome","107.0.0.0","Windows","10.0","","","","",""
"34156","","{""Age"":""37"",""Gender"":""Female"",""Education"":""15""}","demo","23921","survey-text","122","3839114","0.0-7.0-0.0","29","1","2022-11-29 21:24:55","2df368f4e41f066fd1c82c297b4a1108","187.192.4.144","Mozilla/5.0 (Windows NT 10.0; Win64; x64) AppleWebKit/537.36 (KHTML, like Gecko) Chrome/107.0.0.0 Safari/537.36","WebKit","Chrome","107.0.0.0","Windows","10.0","","","","",""
"8715","","{""Race"":[""Other""]}","demo","23921","survey-multi-select","123","3847847","0.0-7.0-1.0","29","1","2022-11-29 21:24:55","2df368f4e41f066fd1c82c297b4a1108","187.192.4.144","Mozilla/5.0 (Windows NT 10.0; Win64; x64) AppleWebKit/537.36 (KHTML, like Gecko) Chrome/107.0.0.0 Safari/537.36","WebKit","Chrome","107.0.0.0","Windows","10.0","[0]","","","",""
"10294","","{""Latino"":""Yes"",""Alert"":""Afternoon""}","demo","23921","survey-multi-choice","124","3858164","0.0-7.0-2.0","29","1","2022-11-29 21:24:55","2df368f4e41f066fd1c82c297b4a1108","187.192.4.144","Mozilla/5.0 (Windows NT 10.0; Win64; x64) AppleWebKit/537.36 (KHTML, like Gecko) Chrome/107.0.0.0 Safari/537.36","WebKit","Chrome","107.0.0.0","Windows","10.0","[0,1]","","","",""
"119651","","{""Q0"":""interruptions, hot weather (air conditioner not working properly)""}","demo","23921","survey-text","125","3977833","0.0-7.0-3.0","29","1","2022-11-29 21:24:55","2df368f4e41f066fd1c82c297b4a1108","187.192.4.144","Mozilla/5.0 (Windows NT 10.0; Win64; x64) AppleWebKit/537.36 (KHTML, like Gecko) Chrome/107.0.0.0 Safari/537.36","WebKit","Chrome","107.0.0.0","Windows","10.0","","","","",""
"14396","<p>Thank you for participating! </p><strong>Your completion code is: CXEJB7NH. Please copy-paste this code and submit it on Prolific.</strong><p>Click <a href=""https://drive.google.com/file/d/1c70cdHFlc0AaR6RujLWLJwWkv1RbHQJY/view?usp=sharing"" target=""_blank"" rel=""noopener noreferrer"">here</a> to access the debriefing form and know more about our research. <p> Please click the button below to finish the experiment and save your data.</p> <p> IMPORTANT: Please <strong>do not leave this page </strong> without clicking the button below.</p> <p> You may close the tab/window after you click the button below.","0","","","html-button-response","126","3992252","0.0-8.0","29","1","2022-11-29 21:24:55","2df368f4e41f066fd1c82c297b4a1108","187.192.4.144","Mozilla/5.0 (Windows NT 10.0; Win64; x64) AppleWebKit/537.36 (KHTML, like Gecko) Chrome/107.0.0.0 Safari/537.36","WebKit","Chrome","107.0.0.0","Windows","10.0","","","","",""
