"rt","stimulus","response","typeoftrial","subject","trial_type","trial_index","time_elapsed","internal_node_id","run_id","condition","recorded_at","source_code_version","ip","user_agent","device","browser","browser_version","platform","platform_version","question_order","practice_rating","sentence_num","rating","Experiment"
"24123","
        <p style=""font-size:20px;""> Welcome! Thank you for your interest in our study. </p>
        <p style=""font-size:20px;""> This study is being conducted by researchers at Bowdoin College.</p>
        <p style=""font-size:20px;""> In this experiment, you will be asked to rate the accuracy of English and Spanish translations.</p>
        <p style=""font-size:20px;""> The entire experiment should not last more than 20 minutes. You will be paid $3 USD for your participation. </p>
        <p style=""font-size:20px;""> Please click <a href = ""https://drive.google.com/file/d/1L92a02eEKCpaAEipmqDcBCDR7rsarqFE/view?usp=sharing"" target = ""_blank"">here</a> to read the full consent form. </p>
        <p style=""font-size:20px;""> If you agree to participate, please click the button below to continue to experiment instructions.</p>
        ","0","consent","47048","html-button-response","0","24128","0.0-0.0","24","1","2022-11-29 21:24:51","2df368f4e41f066fd1c82c297b4a1108","189.144.49.192","Mozilla/5.0 (Windows NT 10.0; Win64; x64) AppleWebKit/537.36 (KHTML, like Gecko) Chrome/106.0.0.0 Safari/537.36 OPR/92.0.0.0","WebKit","Opera","92.0.0.0","Windows","10.0","","","","",""
"4438","","{""ID"":""614b6e4a03ded5acfe2ef9b0""}","ID","47048","survey-text","1","28571","0.0-1.0","24","1","2022-11-29 21:24:51","2df368f4e41f066fd1c82c297b4a1108","189.144.49.192","Mozilla/5.0 (Windows NT 10.0; Win64; x64) AppleWebKit/537.36 (KHTML, like Gecko) Chrome/106.0.0.0 Safari/537.36 OPR/92.0.0.0","WebKit","Opera","92.0.0.0","Windows","10.0","","","","",""
"36093","
        <p style=""font-size:20px;""> You are about to begin the practice test. </p>
        <p style=""font-size:20px;""> On each trial, you will see a sentence in English and its corresponding Spanish translation. </p>
        <p style=""font-size:20px;""> You will rate the accuracy of the translation on a scale from ""Not at all accurate"" to ""Very accurate."" </p>
        <p style=""font-size:20px;""> If you rate the translation as ""Somewhat innaccurate"" or ""Not at all accurate,"" you will be asked to provide your own translation or a reason why the translation is inaccurate. </p>
        <p style=""font-size:20px;""> Click the button below to continue to the practice session.</p>","0","instructions","47048","html-button-response","2","64664","0.0-2.0","24","1","2022-11-29 21:24:51","2df368f4e41f066fd1c82c297b4a1108","189.144.49.192","Mozilla/5.0 (Windows NT 10.0; Win64; x64) AppleWebKit/537.36 (KHTML, like Gecko) Chrome/106.0.0.0 Safari/537.36 OPR/92.0.0.0","WebKit","Opera","92.0.0.0","Windows","10.0","","","","",""
"15084","You see how an artist is running <br> T&uacute ves como un artista est&aacute corriendo","{""Q0"":3}","practice","47048","survey-likert","3","79752","0.0-3.0-0.0","24","1","2022-11-29 21:24:51","2df368f4e41f066fd1c82c297b4a1108","189.144.49.192","Mozilla/5.0 (Windows NT 10.0; Win64; x64) AppleWebKit/537.36 (KHTML, like Gecko) Chrome/106.0.0.0 Safari/537.36 OPR/92.0.0.0","WebKit","Opera","92.0.0.0","Windows","10.0","[0]","3","","",""
"9924","You drop a bowling ball on a mircrowave <br> T&uacute tiras una bola de boliche a un horno","{""Q0"":4}","practice","47048","survey-likert","4","89680","0.0-3.0-0.1","24","1","2022-11-29 21:24:51","2df368f4e41f066fd1c82c297b4a1108","189.144.49.192","Mozilla/5.0 (Windows NT 10.0; Win64; x64) AppleWebKit/537.36 (KHTML, like Gecko) Chrome/106.0.0.0 Safari/537.36 OPR/92.0.0.0","WebKit","Opera","92.0.0.0","Windows","10.0","[0]","4","","",""
"12843","You see how a duck is playing with a pumpkin <br> T&uacute ves como un pato est&aacute jugando con una calabaza","{""Q0"":4}","practice","47048","survey-likert","5","102528","0.0-3.0-0.2","24","1","2022-11-29 21:24:51","2df368f4e41f066fd1c82c297b4a1108","189.144.49.192","Mozilla/5.0 (Windows NT 10.0; Win64; x64) AppleWebKit/537.36 (KHTML, like Gecko) Chrome/106.0.0.0 Safari/537.36 OPR/92.0.0.0","WebKit","Opera","92.0.0.0","Windows","10.0","[0]","4","","",""
"15156","You see how a teacher is drawing a picture <br> T&uacute ves como un maestro pinta una foto","{""Q0"":3}","practice","47048","survey-likert","6","117688","0.0-3.0-0.3","24","1","2022-11-29 21:24:51","2df368f4e41f066fd1c82c297b4a1108","189.144.49.192","Mozilla/5.0 (Windows NT 10.0; Win64; x64) AppleWebKit/537.36 (KHTML, like Gecko) Chrome/106.0.0.0 Safari/537.36 OPR/92.0.0.0","WebKit","Opera","92.0.0.0","Windows","10.0","[0]","3","","",""
"22158","You drop a rock on a phone <br> T&uacute tiras una piedra a un tel&eacutefono","{""Q0"":3}","practice","47048","survey-likert","7","139851","0.0-3.0-0.4","24","1","2022-11-29 21:24:51","2df368f4e41f066fd1c82c297b4a1108","189.144.49.192","Mozilla/5.0 (Windows NT 10.0; Win64; x64) AppleWebKit/537.36 (KHTML, like Gecko) Chrome/106.0.0.0 Safari/537.36 OPR/92.0.0.0","WebKit","Opera","92.0.0.0","Windows","10.0","[0]","3","","",""
"5275","You see how a tiger is playing with a goose <br> T&uacute ves como un le&oacuten come una pizza","{""Q0"":0}","practice","47048","survey-likert","8","145130","0.0-3.0-0.5","24","1","2022-11-29 21:24:51","2df368f4e41f066fd1c82c297b4a1108","189.144.49.192","Mozilla/5.0 (Windows NT 10.0; Win64; x64) AppleWebKit/537.36 (KHTML, like Gecko) Chrome/106.0.0.0 Safari/537.36 OPR/92.0.0.0","WebKit","Opera","92.0.0.0","Windows","10.0","[0]","0","","",""
"34679","You see how a tiger is playing with a goose <br> T&uacute ves como un le&oacuten come una pizza","{""Q0"":""Tú ves como un pato juega con un ganso""}","practice_low_rate","47048","survey-text","9","179816","0.0-3.0-1.5-0.5","24","1","2022-11-29 21:24:51","2df368f4e41f066fd1c82c297b4a1108","189.144.49.192","Mozilla/5.0 (Windows NT 10.0; Win64; x64) AppleWebKit/537.36 (KHTML, like Gecko) Chrome/106.0.0.0 Safari/537.36 OPR/92.0.0.0","WebKit","Opera","92.0.0.0","Windows","10.0","","","5","",""
"4040","<p style=""font-size:20px;"">You have now completed the practice session! </p>
        <p style=""font-size:20px;"">You will now move on to the main experiment. </p>
        <p style=""font-size:20px;"">Please click the button below to continue. </p>","0","movetoexp","47048","html-button-response","10","183859","0.0-4.0","24","1","2022-11-29 21:24:51","2df368f4e41f066fd1c82c297b4a1108","189.144.49.192","Mozilla/5.0 (Windows NT 10.0; Win64; x64) AppleWebKit/537.36 (KHTML, like Gecko) Chrome/106.0.0.0 Safari/537.36 OPR/92.0.0.0","WebKit","Opera","92.0.0.0","Windows","10.0","","","","",""
"8309","You drop a bowling ball on a blackberry <br> T&uacute tiras una bola de boliche a una mora","{""Q0"":3}","trial","47048","survey-likert","11","192170","0.0-5.0-0.0","24","1","2022-11-29 21:24:51","2df368f4e41f066fd1c82c297b4a1108","189.144.49.192","Mozilla/5.0 (Windows NT 10.0; Win64; x64) AppleWebKit/537.36 (KHTML, like Gecko) Chrome/106.0.0.0 Safari/537.36 OPR/92.0.0.0","WebKit","Opera","92.0.0.0","Windows","10.0","[0]","","8","3",""
"14457","You see how a woman is taking money out of a wallet <br> T&uacute ves como una mujer est&aacute sacando dinero de su billetera","{""Q0"":4}","trial","47048","survey-likert","12","206631","0.0-5.0-0.1","24","1","2022-11-29 21:24:51","2df368f4e41f066fd1c82c297b4a1108","189.144.49.192","Mozilla/5.0 (Windows NT 10.0; Win64; x64) AppleWebKit/537.36 (KHTML, like Gecko) Chrome/106.0.0.0 Safari/537.36 OPR/92.0.0.0","WebKit","Opera","92.0.0.0","Windows","10.0","[0]","","44","4",""
"6613","You see how a nurse is taking a syringe <br> T&uacute ves como una enfermera est&aacute agarrando una jeringuilla","{""Q0"":4}","trial","47048","survey-likert","13","213248","0.0-5.0-0.2","24","1","2022-11-29 21:24:51","2df368f4e41f066fd1c82c297b4a1108","189.144.49.192","Mozilla/5.0 (Windows NT 10.0; Win64; x64) AppleWebKit/537.36 (KHTML, like Gecko) Chrome/106.0.0.0 Safari/537.36 OPR/92.0.0.0","WebKit","Opera","92.0.0.0","Windows","10.0","[0]","","48","4",""
"45743","You drop a bowling ball on a strawberry <br> T&uacute tiras una bola de boliche a una fresa","{""Q0"":4}","trial","47048","survey-likert","14","258996","0.0-5.0-0.3","24","1","2022-11-29 21:24:51","2df368f4e41f066fd1c82c297b4a1108","189.144.49.192","Mozilla/5.0 (Windows NT 10.0; Win64; x64) AppleWebKit/537.36 (KHTML, like Gecko) Chrome/106.0.0.0 Safari/537.36 OPR/92.0.0.0","WebKit","Opera","92.0.0.0","Windows","10.0","[0]","","20","4",""
"7593","You see how a dentist is drinking a can of cola <br> T&uacute ves como un dentista est&aacute bebiendo una lata de cola","{""Q0"":4}","trial","47048","survey-likert","15","266593","0.0-5.0-0.4","24","1","2022-11-29 21:24:51","2df368f4e41f066fd1c82c297b4a1108","189.144.49.192","Mozilla/5.0 (Windows NT 10.0; Win64; x64) AppleWebKit/537.36 (KHTML, like Gecko) Chrome/106.0.0.0 Safari/537.36 OPR/92.0.0.0","WebKit","Opera","92.0.0.0","Windows","10.0","[0]","","47","4",""
"116265","You see how a man is boiling potatoes <br> T&uacute ves a un hombre est&aacute hirviendo papas","{""Q0"":2}","trial","47048","survey-likert","16","382862","0.0-5.0-0.5","24","1","2022-11-29 21:24:51","2df368f4e41f066fd1c82c297b4a1108","189.144.49.192","Mozilla/5.0 (Windows NT 10.0; Win64; x64) AppleWebKit/537.36 (KHTML, like Gecko) Chrome/106.0.0.0 Safari/537.36 OPR/92.0.0.0","WebKit","Opera","92.0.0.0","Windows","10.0","[0]","","46","2",""
"5994","You drop a remote on the rug <br> T&uacute tiras un control remoto a la alfombra","{""Q0"":3}","trial","47048","survey-likert","17","388861","0.0-5.0-0.6","24","1","2022-11-29 21:24:51","2df368f4e41f066fd1c82c297b4a1108","189.144.49.192","Mozilla/5.0 (Windows NT 10.0; Win64; x64) AppleWebKit/537.36 (KHTML, like Gecko) Chrome/106.0.0.0 Safari/537.36 OPR/92.0.0.0","WebKit","Opera","92.0.0.0","Windows","10.0","[0]","","39","3",""
"7280","You see how an astronaut is putting on a space suit <br> T&uacute ves como un astronauta se est&aacute poniendo su traje espacial","{""Q0"":4}","trial","47048","survey-likert","18","396147","0.0-5.0-0.7","24","1","2022-11-29 21:24:51","2df368f4e41f066fd1c82c297b4a1108","189.144.49.192","Mozilla/5.0 (Windows NT 10.0; Win64; x64) AppleWebKit/537.36 (KHTML, like Gecko) Chrome/106.0.0.0 Safari/537.36 OPR/92.0.0.0","WebKit","Opera","92.0.0.0","Windows","10.0","[0]","","33","4",""
"6944","You drop a bowling ball on a light bulb <br> T&uacute tiras una bola de boliche a una bombilla","{""Q0"":3}","trial","47048","survey-likert","19","403096","0.0-5.0-0.8","24","1","2022-11-29 21:24:51","2df368f4e41f066fd1c82c297b4a1108","189.144.49.192","Mozilla/5.0 (Windows NT 10.0; Win64; x64) AppleWebKit/537.36 (KHTML, like Gecko) Chrome/106.0.0.0 Safari/537.36 OPR/92.0.0.0","WebKit","Opera","92.0.0.0","Windows","10.0","[0]","","14","3",""
"20537","You see how a zebra is playing with a horse <br> T&uacute ves como una cebra est&aacute jugando con un caballo","{""Q0"":4}","trial","47048","survey-likert","20","423640","0.0-5.0-0.9","24","1","2022-11-29 21:24:51","2df368f4e41f066fd1c82c297b4a1108","189.144.49.192","Mozilla/5.0 (Windows NT 10.0; Win64; x64) AppleWebKit/537.36 (KHTML, like Gecko) Chrome/106.0.0.0 Safari/537.36 OPR/92.0.0.0","WebKit","Opera","92.0.0.0","Windows","10.0","[0]","","66","4",""
"10301","You see how an owl is sitting on the branch <br> T&uacute ves como un b&uacuteho est&aacute reposando en una rama","{""Q0"":3}","trial","47048","survey-likert","21","433945","0.0-5.0-0.10","24","1","2022-11-29 21:24:51","2df368f4e41f066fd1c82c297b4a1108","189.144.49.192","Mozilla/5.0 (Windows NT 10.0; Win64; x64) AppleWebKit/537.36 (KHTML, like Gecko) Chrome/106.0.0.0 Safari/537.36 OPR/92.0.0.0","WebKit","Opera","92.0.0.0","Windows","10.0","[0]","","69","3",""
"4081","You drop a bowling ball on a hat <br> T&uacute tiras una bola de boliche a una gorra","{""Q0"":3}","trial","47048","survey-likert","22","438030","0.0-5.0-0.11","24","1","2022-11-29 21:24:51","2df368f4e41f066fd1c82c297b4a1108","189.144.49.192","Mozilla/5.0 (Windows NT 10.0; Win64; x64) AppleWebKit/537.36 (KHTML, like Gecko) Chrome/106.0.0.0 Safari/537.36 OPR/92.0.0.0","WebKit","Opera","92.0.0.0","Windows","10.0","[0]","","10","3",""
"5899","You see how a mouse is eating cheese <br> T&uacute ves como el rat&oacuten est&aacute comiendo queso","{""Q0"":3}","trial","47048","survey-likert","23","443932","0.0-5.0-0.12","24","1","2022-11-29 21:24:51","2df368f4e41f066fd1c82c297b4a1108","189.144.49.192","Mozilla/5.0 (Windows NT 10.0; Win64; x64) AppleWebKit/537.36 (KHTML, like Gecko) Chrome/106.0.0.0 Safari/537.36 OPR/92.0.0.0","WebKit","Opera","92.0.0.0","Windows","10.0","[0]","","56","3",""
"7130","You see how a boy is peeling a banana <br> T&uacute ves como un ni&ntildeo est&aacute pelando una banana","{""Q0"":4}","trial","47048","survey-likert","24","451067","0.0-5.0-0.13","24","1","2022-11-29 21:24:51","2df368f4e41f066fd1c82c297b4a1108","189.144.49.192","Mozilla/5.0 (Windows NT 10.0; Win64; x64) AppleWebKit/537.36 (KHTML, like Gecko) Chrome/106.0.0.0 Safari/537.36 OPR/92.0.0.0","WebKit","Opera","92.0.0.0","Windows","10.0","[0]","","30","4",""
"416527","You drop a bowling ball on an empty can of beer <br> T&uacute tiras una bola de boliche a una lata de cerveza vac&iacutea","{""Q0"":4}","trial","47048","survey-likert","25","867598","0.0-5.0-0.14","24","1","2022-11-29 21:24:51","2df368f4e41f066fd1c82c297b4a1108","189.144.49.192","Mozilla/5.0 (Windows NT 10.0; Win64; x64) AppleWebKit/537.36 (KHTML, like Gecko) Chrome/106.0.0.0 Safari/537.36 OPR/92.0.0.0","WebKit","Opera","92.0.0.0","Windows","10.0","[0]","","3","4",""
"5553","You drop a bowling ball on a piece of sushi <br> T&uacute tiras una bola de boliche a un pedazo de sushi","{""Q0"":3}","trial","47048","survey-likert","26","873157","0.0-5.0-0.15","24","1","2022-11-29 21:24:51","2df368f4e41f066fd1c82c297b4a1108","189.144.49.192","Mozilla/5.0 (Windows NT 10.0; Win64; x64) AppleWebKit/537.36 (KHTML, like Gecko) Chrome/106.0.0.0 Safari/537.36 OPR/92.0.0.0","WebKit","Opera","92.0.0.0","Windows","10.0","[0]","","21","3",""
"4718","You see how an elephant is eating a watermelon <br> T&uacute ves como un elefante est&aacute comiendo una sand&iacutea","{""Q0"":4}","trial","47048","survey-likert","27","877878","0.0-5.0-0.16","24","1","2022-11-29 21:24:51","2df368f4e41f066fd1c82c297b4a1108","189.144.49.192","Mozilla/5.0 (Windows NT 10.0; Win64; x64) AppleWebKit/537.36 (KHTML, like Gecko) Chrome/106.0.0.0 Safari/537.36 OPR/92.0.0.0","WebKit","Opera","92.0.0.0","Windows","10.0","[0]","","31","4",""
"10171","You drop a bowling ball on an egg flan <br> T&uacute tiras una bola de boliche a un flan","{""Q0"":3}","trial","47048","survey-likert","28","888053","0.0-5.0-0.17","24","1","2022-11-29 21:24:51","2df368f4e41f066fd1c82c297b4a1108","189.144.49.192","Mozilla/5.0 (Windows NT 10.0; Win64; x64) AppleWebKit/537.36 (KHTML, like Gecko) Chrome/106.0.0.0 Safari/537.36 OPR/92.0.0.0","WebKit","Opera","92.0.0.0","Windows","10.0","[0]","","7","3",""
"40853","You see how an old man is hammering a nail <br> T&uacute ves como un hombre anciano est&aacute martillando un clavo","{""Q0"":4}","trial","47048","survey-likert","29","928911","0.0-5.0-0.18","24","1","2022-11-29 21:24:51","2df368f4e41f066fd1c82c297b4a1108","189.144.49.192","Mozilla/5.0 (Windows NT 10.0; Win64; x64) AppleWebKit/537.36 (KHTML, like Gecko) Chrome/106.0.0.0 Safari/537.36 OPR/92.0.0.0","WebKit","Opera","92.0.0.0","Windows","10.0","[0]","","29","4",""
"6568","You see how a police officer is talking on the phone <br> T&uacute ves como un polic&iacutea est&aacute hablando por el tel&eacutefono","{""Q0"":4}","trial","47048","survey-likert","30","935483","0.0-5.0-0.19","24","1","2022-11-29 21:24:51","2df368f4e41f066fd1c82c297b4a1108","189.144.49.192","Mozilla/5.0 (Windows NT 10.0; Win64; x64) AppleWebKit/537.36 (KHTML, like Gecko) Chrome/106.0.0.0 Safari/537.36 OPR/92.0.0.0","WebKit","Opera","92.0.0.0","Windows","10.0","[0]","","62","4",""
"159705","You see how a parrot is eating an apple <br> T&uacute ves como un loro est&aacute comiendo una manzana","{""Q0"":4}","trial","47048","survey-likert","31","1095193","0.0-5.0-0.20","24","1","2022-11-29 21:24:51","2df368f4e41f066fd1c82c297b4a1108","189.144.49.192","Mozilla/5.0 (Windows NT 10.0; Win64; x64) AppleWebKit/537.36 (KHTML, like Gecko) Chrome/106.0.0.0 Safari/537.36 OPR/92.0.0.0","WebKit","Opera","92.0.0.0","Windows","10.0","[0]","","58","4",""
"5322","You see how a donkey is drinking water <br> T&uacute ves como un burro est&aacute bebiendo agua","{""Q0"":3}","trial","47048","survey-likert","32","1100521","0.0-5.0-0.21","24","1","2022-11-29 21:24:51","2df368f4e41f066fd1c82c297b4a1108","189.144.49.192","Mozilla/5.0 (Windows NT 10.0; Win64; x64) AppleWebKit/537.36 (KHTML, like Gecko) Chrome/106.0.0.0 Safari/537.36 OPR/92.0.0.0","WebKit","Opera","92.0.0.0","Windows","10.0","[0]","","45","3",""
"23626","You drop a bowling ball on a piece of cake <br> T&uacute tiras una bola de boliche a un trozo de pastel","{""Q0"":3}","trial","47048","survey-likert","33","1124151","0.0-5.0-0.22","24","1","2022-11-29 21:24:51","2df368f4e41f066fd1c82c297b4a1108","189.144.49.192","Mozilla/5.0 (Windows NT 10.0; Win64; x64) AppleWebKit/537.36 (KHTML, like Gecko) Chrome/106.0.0.0 Safari/537.36 OPR/92.0.0.0","WebKit","Opera","92.0.0.0","Windows","10.0","[0]","","2","3",""
"4986","You drop a keyboard on the bed <br> T&uacute tiras un teclado a la cama","{""Q0"":3}","trial","47048","survey-likert","34","1129141","0.0-5.0-0.23","24","1","2022-11-29 21:24:51","2df368f4e41f066fd1c82c297b4a1108","189.144.49.192","Mozilla/5.0 (Windows NT 10.0; Win64; x64) AppleWebKit/537.36 (KHTML, like Gecko) Chrome/106.0.0.0 Safari/537.36 OPR/92.0.0.0","WebKit","Opera","92.0.0.0","Windows","10.0","[0]","","36","3",""
"224306","You see how a musician is playing a guitar <br> T&uacute ves como un m&uacutesico est&aacute tocando la guitarra","{""Q0"":3}","trial","47048","survey-likert","35","1353452","0.0-5.0-0.24","24","1","2022-11-29 21:24:51","2df368f4e41f066fd1c82c297b4a1108","189.144.49.192","Mozilla/5.0 (Windows NT 10.0; Win64; x64) AppleWebKit/537.36 (KHTML, like Gecko) Chrome/106.0.0.0 Safari/537.36 OPR/92.0.0.0","WebKit","Opera","92.0.0.0","Windows","10.0","[0]","","27","3",""
"30853","You drop a cabbage on the table <br> T&uacute tiras una col a la mesa","{""Q0"":3}","trial","47048","survey-likert","36","1384310","0.0-5.0-0.25","24","1","2022-11-29 21:24:51","2df368f4e41f066fd1c82c297b4a1108","189.144.49.192","Mozilla/5.0 (Windows NT 10.0; Win64; x64) AppleWebKit/537.36 (KHTML, like Gecko) Chrome/106.0.0.0 Safari/537.36 OPR/92.0.0.0","WebKit","Opera","92.0.0.0","Windows","10.0","[0]","","35","3",""
"5176","You see how an actress is taking a microphone <br> T&uacute ves como una actriz est&aacute agarrando el micr&oacutefono","{""Q0"":3}","trial","47048","survey-likert","37","1389491","0.0-5.0-0.26","24","1","2022-11-29 21:24:51","2df368f4e41f066fd1c82c297b4a1108","189.144.49.192","Mozilla/5.0 (Windows NT 10.0; Win64; x64) AppleWebKit/537.36 (KHTML, like Gecko) Chrome/106.0.0.0 Safari/537.36 OPR/92.0.0.0","WebKit","Opera","92.0.0.0","Windows","10.0","[0]","","51","3",""
"5687","You drop a bowling ball on an iPhone <br> T&uacute tiras una bola de boliche a un iPhone","{""Q0"":3}","trial","47048","survey-likert","38","1395182","0.0-5.0-0.27","24","1","2022-11-29 21:24:51","2df368f4e41f066fd1c82c297b4a1108","189.144.49.192","Mozilla/5.0 (Windows NT 10.0; Win64; x64) AppleWebKit/537.36 (KHTML, like Gecko) Chrome/106.0.0.0 Safari/537.36 OPR/92.0.0.0","WebKit","Opera","92.0.0.0","Windows","10.0","[0]","","13","3",""
"5185","You see how a thief is stealing a wallet <br> T&uacute ves como un ladr&oacuten est&aacute robando una billetera","{""Q0"":4}","trial","47048","survey-likert","39","1400371","0.0-5.0-0.28","24","1","2022-11-29 21:24:51","2df368f4e41f066fd1c82c297b4a1108","189.144.49.192","Mozilla/5.0 (Windows NT 10.0; Win64; x64) AppleWebKit/537.36 (KHTML, like Gecko) Chrome/106.0.0.0 Safari/537.36 OPR/92.0.0.0","WebKit","Opera","92.0.0.0","Windows","10.0","[0]","","68","4",""
"6508","You see how a student is writing on a board <br> T&uacute ves como un estudiante est&aacute escribiendo en la pizarra","{""Q0"":4}","trial","47048","survey-likert","40","1406883","0.0-5.0-0.29","24","1","2022-11-29 21:24:51","2df368f4e41f066fd1c82c297b4a1108","189.144.49.192","Mozilla/5.0 (Windows NT 10.0; Win64; x64) AppleWebKit/537.36 (KHTML, like Gecko) Chrome/106.0.0.0 Safari/537.36 OPR/92.0.0.0","WebKit","Opera","92.0.0.0","Windows","10.0","[0]","","50","4",""
"6076","You see how a doctor is taking a stethoscope <br> T&uacute ves como un doctor est&aacute agarrando un estetoscopio","{""Q0"":4}","trial","47048","survey-likert","41","1412963","0.0-5.0-0.30","24","1","2022-11-29 21:24:51","2df368f4e41f066fd1c82c297b4a1108","189.144.49.192","Mozilla/5.0 (Windows NT 10.0; Win64; x64) AppleWebKit/537.36 (KHTML, like Gecko) Chrome/106.0.0.0 Safari/537.36 OPR/92.0.0.0","WebKit","Opera","92.0.0.0","Windows","10.0","[0]","","49","4",""
"4115","You see how a panda is resting on a tree <br> T&uacute ves como un panda est&aacute descansando en un &aacuterbol","{""Q0"":4}","trial","47048","survey-likert","42","1417083","0.0-5.0-0.31","24","1","2022-11-29 21:24:51","2df368f4e41f066fd1c82c297b4a1108","189.144.49.192","Mozilla/5.0 (Windows NT 10.0; Win64; x64) AppleWebKit/537.36 (KHTML, like Gecko) Chrome/106.0.0.0 Safari/537.36 OPR/92.0.0.0","WebKit","Opera","92.0.0.0","Windows","10.0","[0]","","57","4",""
"9167","You drop a bowling ball on a wine glass <br> T&uacute tiras una bola de boliche a una copa de vino","{""Q0"":3}","trial","47048","survey-likert","43","1426254","0.0-5.0-0.32","24","1","2022-11-29 21:24:51","2df368f4e41f066fd1c82c297b4a1108","189.144.49.192","Mozilla/5.0 (Windows NT 10.0; Win64; x64) AppleWebKit/537.36 (KHTML, like Gecko) Chrome/106.0.0.0 Safari/537.36 OPR/92.0.0.0","WebKit","Opera","92.0.0.0","Windows","10.0","[0]","","5","3",""
"2700","You drop a bowling ball on an egg <br> T&uacute tiras una bola de boliche a un huevo","{""Q0"":3}","trial","47048","survey-likert","44","1428958","0.0-5.0-0.33","24","1","2022-11-29 21:24:51","2df368f4e41f066fd1c82c297b4a1108","189.144.49.192","Mozilla/5.0 (Windows NT 10.0; Win64; x64) AppleWebKit/537.36 (KHTML, like Gecko) Chrome/106.0.0.0 Safari/537.36 OPR/92.0.0.0","WebKit","Opera","92.0.0.0","Windows","10.0","[0]","","6","3",""
"3800","You drop a bowling ball on glasses <br> T&uacute tiras una bola de boliche a unas gafas","{""Q0"":3}","trial","47048","survey-likert","45","1432762","0.0-5.0-0.34","24","1","2022-11-29 21:24:51","2df368f4e41f066fd1c82c297b4a1108","189.144.49.192","Mozilla/5.0 (Windows NT 10.0; Win64; x64) AppleWebKit/537.36 (KHTML, like Gecko) Chrome/106.0.0.0 Safari/537.36 OPR/92.0.0.0","WebKit","Opera","92.0.0.0","Windows","10.0","[0]","","9","3",""
"7718","You see how a postman is driving a car <br> T&uacute ves como un cartero est&aacute conduciendo un coche","{""Q0"":4}","trial","47048","survey-likert","46","1440485","0.0-5.0-0.35","24","1","2022-11-29 21:24:51","2df368f4e41f066fd1c82c297b4a1108","189.144.49.192","Mozilla/5.0 (Windows NT 10.0; Win64; x64) AppleWebKit/537.36 (KHTML, like Gecko) Chrome/106.0.0.0 Safari/537.36 OPR/92.0.0.0","WebKit","Opera","92.0.0.0","Windows","10.0","[0]","","32","4",""
"7831","You see how a woman is paying with a debit card <br> T&uacute ves como una mujer est&aacute pagando con una tarjeta de d&eacutebito","{""Q0"":4}","trial","47048","survey-likert","47","1448321","0.0-5.0-0.36","24","1","2022-11-29 21:24:51","2df368f4e41f066fd1c82c297b4a1108","189.144.49.192","Mozilla/5.0 (Windows NT 10.0; Win64; x64) AppleWebKit/537.36 (KHTML, like Gecko) Chrome/106.0.0.0 Safari/537.36 OPR/92.0.0.0","WebKit","Opera","92.0.0.0","Windows","10.0","[0]","","64","4",""
"6164","You see how a giraffe is playing with a zebra <br> T&uacute ves como una jirafa est&aacute jugando con una cebra","{""Q0"":4}","trial","47048","survey-likert","48","1454490","0.0-5.0-0.37","24","1","2022-11-29 21:24:51","2df368f4e41f066fd1c82c297b4a1108","189.144.49.192","Mozilla/5.0 (Windows NT 10.0; Win64; x64) AppleWebKit/537.36 (KHTML, like Gecko) Chrome/106.0.0.0 Safari/537.36 OPR/92.0.0.0","WebKit","Opera","92.0.0.0","Windows","10.0","[0]","","65","4",""
"6637","You drop a bowling ball on a paper cup <br> T&uacute tiras una bola de boliche a un vaso de papel","{""Q0"":3}","trial","47048","survey-likert","49","1461131","0.0-5.0-0.38","24","1","2022-11-29 21:24:51","2df368f4e41f066fd1c82c297b4a1108","189.144.49.192","Mozilla/5.0 (Windows NT 10.0; Win64; x64) AppleWebKit/537.36 (KHTML, like Gecko) Chrome/106.0.0.0 Safari/537.36 OPR/92.0.0.0","WebKit","Opera","92.0.0.0","Windows","10.0","[0]","","24","3",""
"3858","You drop a bowling ball on a chocolate ice-cream <br> T&uacute tiras una bola de boliche a un helado de chocolate","{""Q0"":3}","trial","47048","survey-likert","50","1464994","0.0-5.0-0.39","24","1","2022-11-29 21:24:51","2df368f4e41f066fd1c82c297b4a1108","189.144.49.192","Mozilla/5.0 (Windows NT 10.0; Win64; x64) AppleWebKit/537.36 (KHTML, like Gecko) Chrome/106.0.0.0 Safari/537.36 OPR/92.0.0.0","WebKit","Opera","92.0.0.0","Windows","10.0","[0]","","11","3",""
"6511","You see how a butterfly is sitting on a flower <br> T&uacute ves como una mariposa est&aacute reposando en una flor","{""Q0"":4}","trial","47048","survey-likert","51","1471509","0.0-5.0-0.40","24","1","2022-11-29 21:24:51","2df368f4e41f066fd1c82c297b4a1108","189.144.49.192","Mozilla/5.0 (Windows NT 10.0; Win64; x64) AppleWebKit/537.36 (KHTML, like Gecko) Chrome/106.0.0.0 Safari/537.36 OPR/92.0.0.0","WebKit","Opera","92.0.0.0","Windows","10.0","[0]","","59","4",""
"3014","You drop a bowling ball on a donut <br> T&uacute tiras una bola de boliche a una rosquilla","{""Q0"":3}","trial","47048","survey-likert","52","1474529","0.0-5.0-0.41","24","1","2022-11-29 21:24:51","2df368f4e41f066fd1c82c297b4a1108","189.144.49.192","Mozilla/5.0 (Windows NT 10.0; Win64; x64) AppleWebKit/537.36 (KHTML, like Gecko) Chrome/106.0.0.0 Safari/537.36 OPR/92.0.0.0","WebKit","Opera","92.0.0.0","Windows","10.0","[0]","","17","3",""
"6559","You see how a hairdresser is taking scissors <br> T&uacute ves como una peluquera est&aacute agarrando las tijeras","{""Q0"":4}","trial","47048","survey-likert","53","1481092","0.0-5.0-0.42","24","1","2022-11-29 21:24:51","2df368f4e41f066fd1c82c297b4a1108","189.144.49.192","Mozilla/5.0 (Windows NT 10.0; Win64; x64) AppleWebKit/537.36 (KHTML, like Gecko) Chrome/106.0.0.0 Safari/537.36 OPR/92.0.0.0","WebKit","Opera","92.0.0.0","Windows","10.0","[0]","","60","4",""
"5914","You see how a horse is chewing hay <br> T&uacute ves como un caballo est&aacute masticando el heno","{""Q0"":4}","trial","47048","survey-likert","54","1487010","0.0-5.0-0.43","24","1","2022-11-29 21:24:51","2df368f4e41f066fd1c82c297b4a1108","189.144.49.192","Mozilla/5.0 (Windows NT 10.0; Win64; x64) AppleWebKit/537.36 (KHTML, like Gecko) Chrome/106.0.0.0 Safari/537.36 OPR/92.0.0.0","WebKit","Opera","92.0.0.0","Windows","10.0","[0]","","55","4",""
"10137","You see how a president is writing in the notebook <br> T&uacute ves como un presidente est&aacute escribiendo en la libreta","{""Q0"":4}","trial","47048","survey-likert","55","1497151","0.0-5.0-0.44","24","1","2022-11-29 21:24:51","2df368f4e41f066fd1c82c297b4a1108","189.144.49.192","Mozilla/5.0 (Windows NT 10.0; Win64; x64) AppleWebKit/537.36 (KHTML, like Gecko) Chrome/106.0.0.0 Safari/537.36 OPR/92.0.0.0","WebKit","Opera","92.0.0.0","Windows","10.0","[0]","","63","4",""
"5719","You drop a bowling ball on a chocolate muffin <br> T&uacute tiras una bola de boliche a una magdalena de chocolate","{""Q0"":3}","trial","47048","survey-likert","56","1502874","0.0-5.0-0.45","24","1","2022-11-29 21:24:51","2df368f4e41f066fd1c82c297b4a1108","189.144.49.192","Mozilla/5.0 (Windows NT 10.0; Win64; x64) AppleWebKit/537.36 (KHTML, like Gecko) Chrome/106.0.0.0 Safari/537.36 OPR/92.0.0.0","WebKit","Opera","92.0.0.0","Windows","10.0","[0]","","16","3",""
"19966","You see how a pilot is reading a book <br> T&uacute ves como un piloto est&aacute leyendo un libro","{""Q0"":4}","trial","47048","survey-likert","57","1522845","0.0-5.0-0.46","24","1","2022-11-29 21:24:51","2df368f4e41f066fd1c82c297b4a1108","189.144.49.192","Mozilla/5.0 (Windows NT 10.0; Win64; x64) AppleWebKit/537.36 (KHTML, like Gecko) Chrome/106.0.0.0 Safari/537.36 OPR/92.0.0.0","WebKit","Opera","92.0.0.0","Windows","10.0","[0]","","61","4",""
"4216","You drop a bowling ball on a ceramic plate <br> T&uacute tiras una bola de boliche a un plato de cer&aacutemica","{""Q0"":3}","trial","47048","survey-likert","58","1527065","0.0-5.0-0.47","24","1","2022-11-29 21:24:51","2df368f4e41f066fd1c82c297b4a1108","189.144.49.192","Mozilla/5.0 (Windows NT 10.0; Win64; x64) AppleWebKit/537.36 (KHTML, like Gecko) Chrome/106.0.0.0 Safari/537.36 OPR/92.0.0.0","WebKit","Opera","92.0.0.0","Windows","10.0","[0]","","19","3",""
"3308","You drop a bowling ball on a porcelain figure <br> T&uacute tiras una bola de boliche a una figura de porcelana","{""Q0"":3}","trial","47048","survey-likert","59","1530378","0.0-5.0-0.48","24","1","2022-11-29 21:24:51","2df368f4e41f066fd1c82c297b4a1108","189.144.49.192","Mozilla/5.0 (Windows NT 10.0; Win64; x64) AppleWebKit/537.36 (KHTML, like Gecko) Chrome/106.0.0.0 Safari/537.36 OPR/92.0.0.0","WebKit","Opera","92.0.0.0","Windows","10.0","[0]","","1","3",""
"4094","You drop a cushion on the magazine <br> T&uacute tiras un coj&iacuten a la revista","{""Q0"":3}","trial","47048","survey-likert","60","1534477","0.0-5.0-0.49","24","1","2022-11-29 21:24:51","2df368f4e41f066fd1c82c297b4a1108","189.144.49.192","Mozilla/5.0 (Windows NT 10.0; Win64; x64) AppleWebKit/537.36 (KHTML, like Gecko) Chrome/106.0.0.0 Safari/537.36 OPR/92.0.0.0","WebKit","Opera","92.0.0.0","Windows","10.0","[0]","","38","3",""
"5412","You see how a kitten is playing in the sandbox <br> T&uacute ves como un gatito est&aacute jugando en la caja de arena","{""Q0"":4}","trial","47048","survey-likert","61","1539894","0.0-5.0-0.50","24","1","2022-11-29 21:24:51","2df368f4e41f066fd1c82c297b4a1108","189.144.49.192","Mozilla/5.0 (Windows NT 10.0; Win64; x64) AppleWebKit/537.36 (KHTML, like Gecko) Chrome/106.0.0.0 Safari/537.36 OPR/92.0.0.0","WebKit","Opera","92.0.0.0","Windows","10.0","[0]","","52","4",""
"8247","You drop a pencil on the shoe <br> T&uacute tiras un l&aacutepiz al zapato","{""Q0"":4}","trial","47048","survey-likert","62","1548145","0.0-5.0-0.51","24","1","2022-11-29 21:24:51","2df368f4e41f066fd1c82c297b4a1108","189.144.49.192","Mozilla/5.0 (Windows NT 10.0; Win64; x64) AppleWebKit/537.36 (KHTML, like Gecko) Chrome/106.0.0.0 Safari/537.36 OPR/92.0.0.0","WebKit","Opera","92.0.0.0","Windows","10.0","[0]","","40","4",""
"4743","You drop a thermometer on the box <br> T&uacute tiras un term&oacutemetro a la caja","{""Q0"":3}","trial","47048","survey-likert","63","1552892","0.0-5.0-0.52","24","1","2022-11-29 21:24:51","2df368f4e41f066fd1c82c297b4a1108","189.144.49.192","Mozilla/5.0 (Windows NT 10.0; Win64; x64) AppleWebKit/537.36 (KHTML, like Gecko) Chrome/106.0.0.0 Safari/537.36 OPR/92.0.0.0","WebKit","Opera","92.0.0.0","Windows","10.0","[0]","","70","3",""
"17441","You drop a needle on the mouse pad <br> T&uacute tiras una aguja a la alfombrilla para el rat&oacuten","{""Q0"":3}","trial","47048","survey-likert","64","1570337","0.0-5.0-0.53","24","1","2022-11-29 21:24:51","2df368f4e41f066fd1c82c297b4a1108","189.144.49.192","Mozilla/5.0 (Windows NT 10.0; Win64; x64) AppleWebKit/537.36 (KHTML, like Gecko) Chrome/106.0.0.0 Safari/537.36 OPR/92.0.0.0","WebKit","Opera","92.0.0.0","Windows","10.0","[0]","","42","3",""
"4544","You drop a towel on the TV <br> T&uacute tiras una toalla a la televisi&oacuten","{""Q0"":3}","trial","47048","survey-likert","65","1574887","0.0-5.0-0.54","24","1","2022-11-29 21:24:51","2df368f4e41f066fd1c82c297b4a1108","189.144.49.192","Mozilla/5.0 (Windows NT 10.0; Win64; x64) AppleWebKit/537.36 (KHTML, like Gecko) Chrome/106.0.0.0 Safari/537.36 OPR/92.0.0.0","WebKit","Opera","92.0.0.0","Windows","10.0","[0]","","53","3",""
"6060","You drop a bowling ball on a rice cake <br> T&uacute tiras una bola de boliche a una tortita de arroz","{""Q0"":3}","trial","47048","survey-likert","66","1580953","0.0-5.0-0.55","24","1","2022-11-29 21:24:51","2df368f4e41f066fd1c82c297b4a1108","189.144.49.192","Mozilla/5.0 (Windows NT 10.0; Win64; x64) AppleWebKit/537.36 (KHTML, like Gecko) Chrome/106.0.0.0 Safari/537.36 OPR/92.0.0.0","WebKit","Opera","92.0.0.0","Windows","10.0","[0]","","18","3",""
"9688","You see how a puppy is playing with a ball <br> T&uacute ves como un cachorro est&aacute jugando con una pelota","{""Q0"":4}","trial","47048","survey-likert","67","1590647","0.0-5.0-0.56","24","1","2022-11-29 21:24:51","2df368f4e41f066fd1c82c297b4a1108","189.144.49.192","Mozilla/5.0 (Windows NT 10.0; Win64; x64) AppleWebKit/537.36 (KHTML, like Gecko) Chrome/106.0.0.0 Safari/537.36 OPR/92.0.0.0","WebKit","Opera","92.0.0.0","Windows","10.0","[0]","","34","4",""
"7574","You see how a man is shaving his beard <br> T&uacute ves como un hombre se est&aacute afeitando la barba","{""Q0"":4}","trial","47048","survey-likert","68","1598226","0.0-5.0-0.57","24","1","2022-11-29 21:24:51","2df368f4e41f066fd1c82c297b4a1108","189.144.49.192","Mozilla/5.0 (Windows NT 10.0; Win64; x64) AppleWebKit/537.36 (KHTML, like Gecko) Chrome/106.0.0.0 Safari/537.36 OPR/92.0.0.0","WebKit","Opera","92.0.0.0","Windows","10.0","[0]","","43","4",""
"9780","You see how a photographer is taking a photo of a lion <br> T&uacute ves como un fot&oacutegrafo est&aacute tomando una foto de un le&oacuten","{""Q0"":4}","trial","47048","survey-likert","69","1608011","0.0-5.0-0.58","24","1","2022-11-29 21:24:51","2df368f4e41f066fd1c82c297b4a1108","189.144.49.192","Mozilla/5.0 (Windows NT 10.0; Win64; x64) AppleWebKit/537.36 (KHTML, like Gecko) Chrome/106.0.0.0 Safari/537.36 OPR/92.0.0.0","WebKit","Opera","92.0.0.0","Windows","10.0","[0]","","72","4",""
"4138","You drop a bowling ball on an iPAD <br> T&uacute tiras una bola de boliche a un iPad","{""Q0"":3}","trial","47048","survey-likert","70","1612155","0.0-5.0-0.59","24","1","2022-11-29 21:24:51","2df368f4e41f066fd1c82c297b4a1108","189.144.49.192","Mozilla/5.0 (Windows NT 10.0; Win64; x64) AppleWebKit/537.36 (KHTML, like Gecko) Chrome/106.0.0.0 Safari/537.36 OPR/92.0.0.0","WebKit","Opera","92.0.0.0","Windows","10.0","[0]","","12","3",""
"8612","You drop a bowling ball on a tomato <br> T&uacute tiras una bola de boliche a un tomate","{""Q0"":3}","trial","47048","survey-likert","71","1620772","0.0-5.0-0.60","24","1","2022-11-29 21:24:51","2df368f4e41f066fd1c82c297b4a1108","189.144.49.192","Mozilla/5.0 (Windows NT 10.0; Win64; x64) AppleWebKit/537.36 (KHTML, like Gecko) Chrome/106.0.0.0 Safari/537.36 OPR/92.0.0.0","WebKit","Opera","92.0.0.0","Windows","10.0","[0]","","23","3",""
"3471","You drop a bowling ball on a cracker <br> T&uacute tiras una bola de boliche a una galleta","{""Q0"":3}","trial","47048","survey-likert","72","1624248","0.0-5.0-0.61","24","1","2022-11-29 21:24:51","2df368f4e41f066fd1c82c297b4a1108","189.144.49.192","Mozilla/5.0 (Windows NT 10.0; Win64; x64) AppleWebKit/537.36 (KHTML, like Gecko) Chrome/106.0.0.0 Safari/537.36 OPR/92.0.0.0","WebKit","Opera","92.0.0.0","Windows","10.0","[0]","","4","3",""
"6294","You see how a man is playing with a cat <br> T&uacute ves como un hombre est&aacute jugando con un gato","{""Q0"":4}","trial","47048","survey-likert","73","1630546","0.0-5.0-0.62","24","1","2022-11-29 21:24:51","2df368f4e41f066fd1c82c297b4a1108","189.144.49.192","Mozilla/5.0 (Windows NT 10.0; Win64; x64) AppleWebKit/537.36 (KHTML, like Gecko) Chrome/106.0.0.0 Safari/537.36 OPR/92.0.0.0","WebKit","Opera","92.0.0.0","Windows","10.0","[0]","","67","4",""
"7240","You see how a teenage girl is playing the piano <br> T&uacute ves como una ni&ntildea adolescente est&aacute tocando el piano","{""Q0"":4}","trial","47048","survey-likert","74","1637790","0.0-5.0-0.63","24","1","2022-11-29 21:24:51","2df368f4e41f066fd1c82c297b4a1108","189.144.49.192","Mozilla/5.0 (Windows NT 10.0; Win64; x64) AppleWebKit/537.36 (KHTML, like Gecko) Chrome/106.0.0.0 Safari/537.36 OPR/92.0.0.0","WebKit","Opera","92.0.0.0","Windows","10.0","[0]","","54","4",""
"5545","You see how a cat is drinking water from a bowl <br> T&uacute ves como un gato est&aacute bebiendo agua de un cuenco","{""Q0"":4}","trial","47048","survey-likert","75","1643338","0.0-5.0-0.64","24","1","2022-11-29 21:24:51","2df368f4e41f066fd1c82c297b4a1108","189.144.49.192","Mozilla/5.0 (Windows NT 10.0; Win64; x64) AppleWebKit/537.36 (KHTML, like Gecko) Chrome/106.0.0.0 Safari/537.36 OPR/92.0.0.0","WebKit","Opera","92.0.0.0","Windows","10.0","[0]","","28","4",""
"3744","You see how a cook is taking a knife <br> T&uacute ves como un cocinero est&aacute agarrando un cuchillo","{""Q0"":4}","trial","47048","survey-likert","76","1647089","0.0-5.0-0.65","24","1","2022-11-29 21:24:51","2df368f4e41f066fd1c82c297b4a1108","189.144.49.192","Mozilla/5.0 (Windows NT 10.0; Win64; x64) AppleWebKit/537.36 (KHTML, like Gecko) Chrome/106.0.0.0 Safari/537.36 OPR/92.0.0.0","WebKit","Opera","92.0.0.0","Windows","10.0","[0]","","71","4",""
"5217","You drop a watch on the laptop <br> T&uacute tiras un reloj al port&aacutetil","{""Q0"":4}","trial","47048","survey-likert","77","1652310","0.0-5.0-0.66","24","1","2022-11-29 21:24:51","2df368f4e41f066fd1c82c297b4a1108","189.144.49.192","Mozilla/5.0 (Windows NT 10.0; Win64; x64) AppleWebKit/537.36 (KHTML, like Gecko) Chrome/106.0.0.0 Safari/537.36 OPR/92.0.0.0","WebKit","Opera","92.0.0.0","Windows","10.0","[0]","","37","4",""
"5382","You drop a fork on the plate <br> T&uacute tiras un tenedor al plato","{""Q0"":4}","trial","47048","survey-likert","78","1657695","0.0-5.0-0.67","24","1","2022-11-29 21:24:51","2df368f4e41f066fd1c82c297b4a1108","189.144.49.192","Mozilla/5.0 (Windows NT 10.0; Win64; x64) AppleWebKit/537.36 (KHTML, like Gecko) Chrome/106.0.0.0 Safari/537.36 OPR/92.0.0.0","WebKit","Opera","92.0.0.0","Windows","10.0","[0]","","26","4",""
"13846","You drop a bowling ball on a mirror <br> T&uacute tiras una bola de boliche a un espejo","{""Q0"":3}","trial","47048","survey-likert","79","1671547","0.0-5.0-0.68","24","1","2022-11-29 21:24:51","2df368f4e41f066fd1c82c297b4a1108","189.144.49.192","Mozilla/5.0 (Windows NT 10.0; Win64; x64) AppleWebKit/537.36 (KHTML, like Gecko) Chrome/106.0.0.0 Safari/537.36 OPR/92.0.0.0","WebKit","Opera","92.0.0.0","Windows","10.0","[0]","","15","3",""
"21508","You drop a ring on the newspaper <br> T&uacute tiras un anillo al peri&oacutedico","{""Q0"":3}","trial","47048","survey-likert","80","1693059","0.0-5.0-0.69","24","1","2022-11-29 21:24:51","2df368f4e41f066fd1c82c297b4a1108","189.144.49.192","Mozilla/5.0 (Windows NT 10.0; Win64; x64) AppleWebKit/537.36 (KHTML, like Gecko) Chrome/106.0.0.0 Safari/537.36 OPR/92.0.0.0","WebKit","Opera","92.0.0.0","Windows","10.0","[0]","","41","3",""
"8207","You drop a toothbrush on the sponge <br> T&uacute tiras un cepillo de dientes en la esponja","{""Q0"":3}","trial","47048","survey-likert","81","1701272","0.0-5.0-0.70","24","1","2022-11-29 21:24:51","2df368f4e41f066fd1c82c297b4a1108","189.144.49.192","Mozilla/5.0 (Windows NT 10.0; Win64; x64) AppleWebKit/537.36 (KHTML, like Gecko) Chrome/106.0.0.0 Safari/537.36 OPR/92.0.0.0","WebKit","Opera","92.0.0.0","Windows","10.0","[0]","","25","3",""
"3950","You drop a bowling ball on a tile <br> T&uacute tiras una bola de boliche a una baldosa","{""Q0"":3}","trial","47048","survey-likert","82","1705227","0.0-5.0-0.71","24","1","2022-11-29 21:24:51","2df368f4e41f066fd1c82c297b4a1108","189.144.49.192","Mozilla/5.0 (Windows NT 10.0; Win64; x64) AppleWebKit/537.36 (KHTML, like Gecko) Chrome/106.0.0.0 Safari/537.36 OPR/92.0.0.0","WebKit","Opera","92.0.0.0","Windows","10.0","[0]","","22","3",""
"6446","
    <p style=""font-size:20px;""> You have completed the experiment portion! </p>
    <p style=""font-size:20px;""> Before you are done, we would like you to answer some basic demographic questions. </p>
    <p style=""font-size:20px;""> Note that your answers to these questions will not affect your compensation/credit. </p>
    <p style=""font-size:20px;""> Click the button below to continue.</p>
    ","0","demo","47048","html-button-response","83","1711680","0.0-6.0","24","1","2022-11-29 21:24:51","2df368f4e41f066fd1c82c297b4a1108","189.144.49.192","Mozilla/5.0 (Windows NT 10.0; Win64; x64) AppleWebKit/537.36 (KHTML, like Gecko) Chrome/106.0.0.0 Safari/537.36 OPR/92.0.0.0","WebKit","Opera","92.0.0.0","Windows","10.0","","","","",""
"36132","","{""Age"":""22"",""Gender"":""Male"",""Education"":""18""}","demo","47048","survey-text","84","1747816","0.0-7.0-0.0","24","1","2022-11-29 21:24:51","2df368f4e41f066fd1c82c297b4a1108","189.144.49.192","Mozilla/5.0 (Windows NT 10.0; Win64; x64) AppleWebKit/537.36 (KHTML, like Gecko) Chrome/106.0.0.0 Safari/537.36 OPR/92.0.0.0","WebKit","Opera","92.0.0.0","Windows","10.0","","","","",""
"11472","","{""Race"":[""Other""]}","demo","47048","survey-multi-select","85","1759295","0.0-7.0-1.0","24","1","2022-11-29 21:24:51","2df368f4e41f066fd1c82c297b4a1108","189.144.49.192","Mozilla/5.0 (Windows NT 10.0; Win64; x64) AppleWebKit/537.36 (KHTML, like Gecko) Chrome/106.0.0.0 Safari/537.36 OPR/92.0.0.0","WebKit","Opera","92.0.0.0","Windows","10.0","[0]","","","",""
"9419","","{""Latino"":""Yes"",""Alert"":""Afternoon""}","demo","47048","survey-multi-choice","86","1768720","0.0-7.0-2.0","24","1","2022-11-29 21:24:51","2df368f4e41f066fd1c82c297b4a1108","189.144.49.192","Mozilla/5.0 (Windows NT 10.0; Win64; x64) AppleWebKit/537.36 (KHTML, like Gecko) Chrome/106.0.0.0 Safari/537.36 OPR/92.0.0.0","WebKit","Opera","92.0.0.0","Windows","10.0","[0,1]","","","",""
"5886","","{""Q0"":""""}","demo","47048","survey-text","87","1774611","0.0-7.0-3.0","24","1","2022-11-29 21:24:51","2df368f4e41f066fd1c82c297b4a1108","189.144.49.192","Mozilla/5.0 (Windows NT 10.0; Win64; x64) AppleWebKit/537.36 (KHTML, like Gecko) Chrome/106.0.0.0 Safari/537.36 OPR/92.0.0.0","WebKit","Opera","92.0.0.0","Windows","10.0","","","","",""
"10898","<p>Thank you for participating! </p><strong>Your completion code is: CXEJB7NH. Please copy-paste this code and submit it on Prolific.</strong><p>Click <a href=""https://drive.google.com/file/d/1c70cdHFlc0AaR6RujLWLJwWkv1RbHQJY/view?usp=sharing"" target=""_blank"" rel=""noopener noreferrer"">here</a> to access the debriefing form and know more about our research. <p> Please click the button below to finish the experiment and save your data.</p> <p> IMPORTANT: Please <strong>do not leave this page </strong> without clicking the button below.</p> <p> You may close the tab/window after you click the button below.","0","","","html-button-response","88","1785510","0.0-8.0","24","1","2022-11-29 21:24:51","2df368f4e41f066fd1c82c297b4a1108","189.144.49.192","Mozilla/5.0 (Windows NT 10.0; Win64; x64) AppleWebKit/537.36 (KHTML, like Gecko) Chrome/106.0.0.0 Safari/537.36 OPR/92.0.0.0","WebKit","Opera","92.0.0.0","Windows","10.0","","","","",""
