"rt","stimulus","response","typeoftrial","subject","trial_type","trial_index","time_elapsed","internal_node_id","run_id","condition","recorded_at","source_code_version","ip","user_agent","device","browser","browser_version","platform","platform_version","question_order","practice_rating","sentence_num","rating","Experiment"
"3152","
        <p style=""font-size:20px;""> Welcome! Thank you for your interest in our study. </p>
        <p style=""font-size:20px;""> This study is being conducted by researchers at Bowdoin College.</p>
        <p style=""font-size:20px;""> In this experiment, you will be asked to rate the accuracy of English and Spanish translations.</p>
        <p style=""font-size:20px;""> The entire experiment should not last more than 20 minutes. You will be paid $3 USD for your participation. </p>
        <p style=""font-size:20px;""> Please click <a href = ""https://drive.google.com/file/d/1L92a02eEKCpaAEipmqDcBCDR7rsarqFE/view?usp=sharing"" target = ""_blank"">here</a> to read the full consent form. </p>
        <p style=""font-size:20px;""> If you agree to participate, please click the button below to continue to experiment instructions.</p>
        ","0","consent","11649","html-button-response","0","3160","0.0-0.0","42","1","2022-11-29 21:25:05","2df368f4e41f066fd1c82c297b4a1108","139.47.74.57","Mozilla/5.0 (Windows NT 10.0; Win64; x64) AppleWebKit/537.36 (KHTML, like Gecko) Chrome/107.0.0.0 Safari/537.36","WebKit","Chrome","107.0.0.0","Windows","10.0","","","","",""
"3042","","{""ID"":""5ecd4ad53f44fd094d7865d4""}","ID","11649","survey-text","1","6221","0.0-1.0","42","1","2022-11-29 21:25:05","2df368f4e41f066fd1c82c297b4a1108","139.47.74.57","Mozilla/5.0 (Windows NT 10.0; Win64; x64) AppleWebKit/537.36 (KHTML, like Gecko) Chrome/107.0.0.0 Safari/537.36","WebKit","Chrome","107.0.0.0","Windows","10.0","","","","",""
"9699","
        <p style=""font-size:20px;""> You are about to begin the practice test. </p>
        <p style=""font-size:20px;""> On each trial, you will see a sentence in English and its corresponding Spanish translation. </p>
        <p style=""font-size:20px;""> You will rate the accuracy of the translation on a scale from ""Not at all accurate"" to ""Very accurate."" </p>
        <p style=""font-size:20px;""> If you rate the translation as ""Somewhat innaccurate"" or ""Not at all accurate,"" you will be asked to provide your own translation or a reason why the translation is inaccurate. </p>
        <p style=""font-size:20px;""> Click the button below to continue to the practice session.</p>","0","instructions","11649","html-button-response","2","15923","0.0-2.0","42","1","2022-11-29 21:25:05","2df368f4e41f066fd1c82c297b4a1108","139.47.74.57","Mozilla/5.0 (Windows NT 10.0; Win64; x64) AppleWebKit/537.36 (KHTML, like Gecko) Chrome/107.0.0.0 Safari/537.36","WebKit","Chrome","107.0.0.0","Windows","10.0","","","","",""
"10484","You see how a tiger is playing with a goose <br> T&uacute ves como un le&oacuten come una pizza","{""Q0"":0}","practice","11649","survey-likert","3","26414","0.0-3.0-0.0","42","1","2022-11-29 21:25:05","2df368f4e41f066fd1c82c297b4a1108","139.47.74.57","Mozilla/5.0 (Windows NT 10.0; Win64; x64) AppleWebKit/537.36 (KHTML, like Gecko) Chrome/107.0.0.0 Safari/537.36","WebKit","Chrome","107.0.0.0","Windows","10.0","[0]","0","","",""
"62923","You see how a tiger is playing with a goose <br> T&uacute ves como un le&oacuten come una pizza","{""Q0"":""I don't remember the sentence entirely, but goose wasn't translated correctly""}","practice_low_rate","11649","survey-text","4","89364","0.0-3.0-1.0-0.0","42","1","2022-11-29 21:25:05","2df368f4e41f066fd1c82c297b4a1108","139.47.74.57","Mozilla/5.0 (Windows NT 10.0; Win64; x64) AppleWebKit/537.36 (KHTML, like Gecko) Chrome/107.0.0.0 Safari/537.36","WebKit","Chrome","107.0.0.0","Windows","10.0","","","5","",""
"10057","You drop a bowling ball on a mircrowave <br> T&uacute tiras una bola de boliche a un horno","{""Q0"":2}","practice","11649","survey-likert","5","99427","0.0-3.0-0.1","42","1","2022-11-29 21:25:05","2df368f4e41f066fd1c82c297b4a1108","139.47.74.57","Mozilla/5.0 (Windows NT 10.0; Win64; x64) AppleWebKit/537.36 (KHTML, like Gecko) Chrome/107.0.0.0 Safari/537.36","WebKit","Chrome","107.0.0.0","Windows","10.0","[0]","2","","",""
"6220","You see how an artist is running <br> T&uacute ves como un artista est&aacute corriendo","{""Q0"":4}","practice","11649","survey-likert","6","105666","0.0-3.0-0.2","42","1","2022-11-29 21:25:05","2df368f4e41f066fd1c82c297b4a1108","139.47.74.57","Mozilla/5.0 (Windows NT 10.0; Win64; x64) AppleWebKit/537.36 (KHTML, like Gecko) Chrome/107.0.0.0 Safari/537.36","WebKit","Chrome","107.0.0.0","Windows","10.0","[0]","4","","",""
"8941","You drop a rock on a phone <br> T&uacute tiras una piedra a un tel&eacutefono","{""Q0"":3}","practice","11649","survey-likert","7","114624","0.0-3.0-0.3","42","1","2022-11-29 21:25:05","2df368f4e41f066fd1c82c297b4a1108","139.47.74.57","Mozilla/5.0 (Windows NT 10.0; Win64; x64) AppleWebKit/537.36 (KHTML, like Gecko) Chrome/107.0.0.0 Safari/537.36","WebKit","Chrome","107.0.0.0","Windows","10.0","[0]","3","","",""
"7154","You see how a teacher is drawing a picture <br> T&uacute ves como un maestro pinta una foto","{""Q0"":3}","practice","11649","survey-likert","8","121796","0.0-3.0-0.4","42","1","2022-11-29 21:25:05","2df368f4e41f066fd1c82c297b4a1108","139.47.74.57","Mozilla/5.0 (Windows NT 10.0; Win64; x64) AppleWebKit/537.36 (KHTML, like Gecko) Chrome/107.0.0.0 Safari/537.36","WebKit","Chrome","107.0.0.0","Windows","10.0","[0]","3","","",""
"5024","You see how a duck is playing with a pumpkin <br> T&uacute ves como un pato est&aacute jugando con una calabaza","{""Q0"":4}","practice","11649","survey-likert","9","126838","0.0-3.0-0.5","42","1","2022-11-29 21:25:05","2df368f4e41f066fd1c82c297b4a1108","139.47.74.57","Mozilla/5.0 (Windows NT 10.0; Win64; x64) AppleWebKit/537.36 (KHTML, like Gecko) Chrome/107.0.0.0 Safari/537.36","WebKit","Chrome","107.0.0.0","Windows","10.0","[0]","4","","",""
"1847","<p style=""font-size:20px;"">You have now completed the practice session! </p>
        <p style=""font-size:20px;"">You will now move on to the main experiment. </p>
        <p style=""font-size:20px;"">Please click the button below to continue. </p>","0","movetoexp","11649","html-button-response","10","128704","0.0-4.0","42","1","2022-11-29 21:25:05","2df368f4e41f066fd1c82c297b4a1108","139.47.74.57","Mozilla/5.0 (Windows NT 10.0; Win64; x64) AppleWebKit/537.36 (KHTML, like Gecko) Chrome/107.0.0.0 Safari/537.36","WebKit","Chrome","107.0.0.0","Windows","10.0","","","","",""
"4769","You see how a postman is driving a car <br> T&uacute ves como un cartero est&aacute conduciendo un coche","{""Q0"":4}","trial","11649","survey-likert","11","133476","0.0-5.0-0.0","42","1","2022-11-29 21:25:05","2df368f4e41f066fd1c82c297b4a1108","139.47.74.57","Mozilla/5.0 (Windows NT 10.0; Win64; x64) AppleWebKit/537.36 (KHTML, like Gecko) Chrome/107.0.0.0 Safari/537.36","WebKit","Chrome","107.0.0.0","Windows","10.0","[0]","","32","4",""
"4112","You see how a kitten is playing in the sandbox <br> T&uacute ves como un gatito est&aacute jugando en la caja de arena","{""Q0"":4}","trial","11649","survey-likert","12","137606","0.0-5.0-0.1","42","1","2022-11-29 21:25:05","2df368f4e41f066fd1c82c297b4a1108","139.47.74.57","Mozilla/5.0 (Windows NT 10.0; Win64; x64) AppleWebKit/537.36 (KHTML, like Gecko) Chrome/107.0.0.0 Safari/537.36","WebKit","Chrome","107.0.0.0","Windows","10.0","[0]","","52","4",""
"4859","You drop a towel on the TV <br> T&uacute tiras una toalla a la televisi&oacuten","{""Q0"":3}","trial","11649","survey-likert","13","142483","0.0-5.0-0.2","42","1","2022-11-29 21:25:05","2df368f4e41f066fd1c82c297b4a1108","139.47.74.57","Mozilla/5.0 (Windows NT 10.0; Win64; x64) AppleWebKit/537.36 (KHTML, like Gecko) Chrome/107.0.0.0 Safari/537.36","WebKit","Chrome","107.0.0.0","Windows","10.0","[0]","","53","3",""
"5055","You drop a bowling ball on a chocolate muffin <br> T&uacute tiras una bola de boliche a una magdalena de chocolate","{""Q0"":4}","trial","11649","survey-likert","14","147556","0.0-5.0-0.3","42","1","2022-11-29 21:25:05","2df368f4e41f066fd1c82c297b4a1108","139.47.74.57","Mozilla/5.0 (Windows NT 10.0; Win64; x64) AppleWebKit/537.36 (KHTML, like Gecko) Chrome/107.0.0.0 Safari/537.36","WebKit","Chrome","107.0.0.0","Windows","10.0","[0]","","16","4",""
"5012","You see how a horse is chewing hay <br> T&uacute ves como un caballo est&aacute masticando el heno","{""Q0"":4}","trial","11649","survey-likert","15","152585","0.0-5.0-0.4","42","1","2022-11-29 21:25:05","2df368f4e41f066fd1c82c297b4a1108","139.47.74.57","Mozilla/5.0 (Windows NT 10.0; Win64; x64) AppleWebKit/537.36 (KHTML, like Gecko) Chrome/107.0.0.0 Safari/537.36","WebKit","Chrome","107.0.0.0","Windows","10.0","[0]","","55","4",""
"4463","You drop a bowling ball on a strawberry <br> T&uacute tiras una bola de boliche a una fresa","{""Q0"":3}","trial","11649","survey-likert","16","157065","0.0-5.0-0.5","42","1","2022-11-29 21:25:05","2df368f4e41f066fd1c82c297b4a1108","139.47.74.57","Mozilla/5.0 (Windows NT 10.0; Win64; x64) AppleWebKit/537.36 (KHTML, like Gecko) Chrome/107.0.0.0 Safari/537.36","WebKit","Chrome","107.0.0.0","Windows","10.0","[0]","","20","3",""
"4920","You see how a police officer is talking on the phone <br> T&uacute ves como un polic&iacutea est&aacute hablando por el tel&eacutefono","{""Q0"":4}","trial","11649","survey-likert","17","162003","0.0-5.0-0.6","42","1","2022-11-29 21:25:05","2df368f4e41f066fd1c82c297b4a1108","139.47.74.57","Mozilla/5.0 (Windows NT 10.0; Win64; x64) AppleWebKit/537.36 (KHTML, like Gecko) Chrome/107.0.0.0 Safari/537.36","WebKit","Chrome","107.0.0.0","Windows","10.0","[0]","","62","4",""
"4094","You drop a bowling ball on a tomato <br> T&uacute tiras una bola de boliche a un tomate","{""Q0"":3}","trial","11649","survey-likert","18","166114","0.0-5.0-0.7","42","1","2022-11-29 21:25:05","2df368f4e41f066fd1c82c297b4a1108","139.47.74.57","Mozilla/5.0 (Windows NT 10.0; Win64; x64) AppleWebKit/537.36 (KHTML, like Gecko) Chrome/107.0.0.0 Safari/537.36","WebKit","Chrome","107.0.0.0","Windows","10.0","[0]","","23","3",""
"6949","You see how a hairdresser is taking scissors <br> T&uacute ves como una peluquera est&aacute agarrando las tijeras","{""Q0"":4}","trial","11649","survey-likert","19","173081","0.0-5.0-0.8","42","1","2022-11-29 21:25:05","2df368f4e41f066fd1c82c297b4a1108","139.47.74.57","Mozilla/5.0 (Windows NT 10.0; Win64; x64) AppleWebKit/537.36 (KHTML, like Gecko) Chrome/107.0.0.0 Safari/537.36","WebKit","Chrome","107.0.0.0","Windows","10.0","[0]","","60","4",""
"3832","You see how a pilot is reading a book <br> T&uacute ves como un piloto est&aacute leyendo un libro","{""Q0"":4}","trial","11649","survey-likert","20","176931","0.0-5.0-0.9","42","1","2022-11-29 21:25:05","2df368f4e41f066fd1c82c297b4a1108","139.47.74.57","Mozilla/5.0 (Windows NT 10.0; Win64; x64) AppleWebKit/537.36 (KHTML, like Gecko) Chrome/107.0.0.0 Safari/537.36","WebKit","Chrome","107.0.0.0","Windows","10.0","[0]","","61","4",""
"4186","You drop a bowling ball on a mirror <br> T&uacute tiras una bola de boliche a un espejo","{""Q0"":3}","trial","11649","survey-likert","21","181135","0.0-5.0-0.10","42","1","2022-11-29 21:25:05","2df368f4e41f066fd1c82c297b4a1108","139.47.74.57","Mozilla/5.0 (Windows NT 10.0; Win64; x64) AppleWebKit/537.36 (KHTML, like Gecko) Chrome/107.0.0.0 Safari/537.36","WebKit","Chrome","107.0.0.0","Windows","10.0","[0]","","15","3",""
"4896","You drop a needle on the mouse pad <br> T&uacute tiras una aguja a la alfombrilla para el rat&oacuten","{""Q0"":3}","trial","11649","survey-likert","22","186049","0.0-5.0-0.11","42","1","2022-11-29 21:25:05","2df368f4e41f066fd1c82c297b4a1108","139.47.74.57","Mozilla/5.0 (Windows NT 10.0; Win64; x64) AppleWebKit/537.36 (KHTML, like Gecko) Chrome/107.0.0.0 Safari/537.36","WebKit","Chrome","107.0.0.0","Windows","10.0","[0]","","42","3",""
"3373","You drop a bowling ball on a cracker <br> T&uacute tiras una bola de boliche a una galleta","{""Q0"":3}","trial","11649","survey-likert","23","189439","0.0-5.0-0.12","42","1","2022-11-29 21:25:05","2df368f4e41f066fd1c82c297b4a1108","139.47.74.57","Mozilla/5.0 (Windows NT 10.0; Win64; x64) AppleWebKit/537.36 (KHTML, like Gecko) Chrome/107.0.0.0 Safari/537.36","WebKit","Chrome","107.0.0.0","Windows","10.0","[0]","","4","3",""
"5127","You drop a bowling ball on an egg flan <br> T&uacute tiras una bola de boliche a un flan","{""Q0"":4}","trial","11649","survey-likert","24","194584","0.0-5.0-0.13","42","1","2022-11-29 21:25:05","2df368f4e41f066fd1c82c297b4a1108","139.47.74.57","Mozilla/5.0 (Windows NT 10.0; Win64; x64) AppleWebKit/537.36 (KHTML, like Gecko) Chrome/107.0.0.0 Safari/537.36","WebKit","Chrome","107.0.0.0","Windows","10.0","[0]","","7","4",""
"3717","You see how a puppy is playing with a ball <br> T&uacute ves como un cachorro est&aacute jugando con una pelota","{""Q0"":4}","trial","11649","survey-likert","25","198319","0.0-5.0-0.14","42","1","2022-11-29 21:25:05","2df368f4e41f066fd1c82c297b4a1108","139.47.74.57","Mozilla/5.0 (Windows NT 10.0; Win64; x64) AppleWebKit/537.36 (KHTML, like Gecko) Chrome/107.0.0.0 Safari/537.36","WebKit","Chrome","107.0.0.0","Windows","10.0","[0]","","34","4",""
"3350","You see how a musician is playing a guitar <br> T&uacute ves como un m&uacutesico est&aacute tocando la guitarra","{""Q0"":4}","trial","11649","survey-likert","26","201687","0.0-5.0-0.15","42","1","2022-11-29 21:25:05","2df368f4e41f066fd1c82c297b4a1108","139.47.74.57","Mozilla/5.0 (Windows NT 10.0; Win64; x64) AppleWebKit/537.36 (KHTML, like Gecko) Chrome/107.0.0.0 Safari/537.36","WebKit","Chrome","107.0.0.0","Windows","10.0","[0]","","27","4",""
"4581","You drop a bowling ball on a donut <br> T&uacute tiras una bola de boliche a una rosquilla","{""Q0"":4}","trial","11649","survey-likert","27","206285","0.0-5.0-0.16","42","1","2022-11-29 21:25:05","2df368f4e41f066fd1c82c297b4a1108","139.47.74.57","Mozilla/5.0 (Windows NT 10.0; Win64; x64) AppleWebKit/537.36 (KHTML, like Gecko) Chrome/107.0.0.0 Safari/537.36","WebKit","Chrome","107.0.0.0","Windows","10.0","[0]","","17","4",""
"3705","You drop a bowling ball on a porcelain figure <br> T&uacute tiras una bola de boliche a una figura de porcelana","{""Q0"":4}","trial","11649","survey-likert","28","210009","0.0-5.0-0.17","42","1","2022-11-29 21:25:05","2df368f4e41f066fd1c82c297b4a1108","139.47.74.57","Mozilla/5.0 (Windows NT 10.0; Win64; x64) AppleWebKit/537.36 (KHTML, like Gecko) Chrome/107.0.0.0 Safari/537.36","WebKit","Chrome","107.0.0.0","Windows","10.0","[0]","","1","4",""
"4513","You drop a keyboard on the bed <br> T&uacute tiras un teclado a la cama","{""Q0"":4}","trial","11649","survey-likert","29","214539","0.0-5.0-0.18","42","1","2022-11-29 21:25:05","2df368f4e41f066fd1c82c297b4a1108","139.47.74.57","Mozilla/5.0 (Windows NT 10.0; Win64; x64) AppleWebKit/537.36 (KHTML, like Gecko) Chrome/107.0.0.0 Safari/537.36","WebKit","Chrome","107.0.0.0","Windows","10.0","[0]","","36","4",""
"4678","You drop a thermometer on the box <br> T&uacute tiras un term&oacutemetro a la caja","{""Q0"":3}","trial","11649","survey-likert","30","219235","0.0-5.0-0.19","42","1","2022-11-29 21:25:05","2df368f4e41f066fd1c82c297b4a1108","139.47.74.57","Mozilla/5.0 (Windows NT 10.0; Win64; x64) AppleWebKit/537.36 (KHTML, like Gecko) Chrome/107.0.0.0 Safari/537.36","WebKit","Chrome","107.0.0.0","Windows","10.0","[0]","","70","3",""
"11575","You see how a man is boiling potatoes <br> T&uacute ves a un hombre est&aacute hirviendo papas","{""Q0"":3}","trial","11649","survey-likert","31","230827","0.0-5.0-0.20","42","1","2022-11-29 21:25:05","2df368f4e41f066fd1c82c297b4a1108","139.47.74.57","Mozilla/5.0 (Windows NT 10.0; Win64; x64) AppleWebKit/537.36 (KHTML, like Gecko) Chrome/107.0.0.0 Safari/537.36","WebKit","Chrome","107.0.0.0","Windows","10.0","[0]","","46","3",""
"5400","You see how a woman is taking money out of a wallet <br> T&uacute ves como una mujer est&aacute sacando dinero de su billetera","{""Q0"":4}","trial","11649","survey-likert","32","236245","0.0-5.0-0.21","42","1","2022-11-29 21:25:05","2df368f4e41f066fd1c82c297b4a1108","139.47.74.57","Mozilla/5.0 (Windows NT 10.0; Win64; x64) AppleWebKit/537.36 (KHTML, like Gecko) Chrome/107.0.0.0 Safari/537.36","WebKit","Chrome","107.0.0.0","Windows","10.0","[0]","","44","4",""
"4777","You see how a student is writing on a board <br> T&uacute ves como un estudiante est&aacute escribiendo en la pizarra","{""Q0"":4}","trial","11649","survey-likert","33","241040","0.0-5.0-0.22","42","1","2022-11-29 21:25:05","2df368f4e41f066fd1c82c297b4a1108","139.47.74.57","Mozilla/5.0 (Windows NT 10.0; Win64; x64) AppleWebKit/537.36 (KHTML, like Gecko) Chrome/107.0.0.0 Safari/537.36","WebKit","Chrome","107.0.0.0","Windows","10.0","[0]","","50","4",""
"3259","You drop a bowling ball on glasses <br> T&uacute tiras una bola de boliche a unas gafas","{""Q0"":3}","trial","11649","survey-likert","34","244321","0.0-5.0-0.23","42","1","2022-11-29 21:25:05","2df368f4e41f066fd1c82c297b4a1108","139.47.74.57","Mozilla/5.0 (Windows NT 10.0; Win64; x64) AppleWebKit/537.36 (KHTML, like Gecko) Chrome/107.0.0.0 Safari/537.36","WebKit","Chrome","107.0.0.0","Windows","10.0","[0]","","9","3",""
"3214","You drop a bowling ball on a chocolate ice-cream <br> T&uacute tiras una bola de boliche a un helado de chocolate","{""Q0"":3}","trial","11649","survey-likert","35","247556","0.0-5.0-0.24","42","1","2022-11-29 21:25:05","2df368f4e41f066fd1c82c297b4a1108","139.47.74.57","Mozilla/5.0 (Windows NT 10.0; Win64; x64) AppleWebKit/537.36 (KHTML, like Gecko) Chrome/107.0.0.0 Safari/537.36","WebKit","Chrome","107.0.0.0","Windows","10.0","[0]","","11","3",""
"5446","You drop a bowling ball on a piece of sushi <br> T&uacute tiras una bola de boliche a un pedazo de sushi","{""Q0"":3}","trial","11649","survey-likert","36","253021","0.0-5.0-0.25","42","1","2022-11-29 21:25:05","2df368f4e41f066fd1c82c297b4a1108","139.47.74.57","Mozilla/5.0 (Windows NT 10.0; Win64; x64) AppleWebKit/537.36 (KHTML, like Gecko) Chrome/107.0.0.0 Safari/537.36","WebKit","Chrome","107.0.0.0","Windows","10.0","[0]","","21","3",""
"6159","You see how a cook is taking a knife <br> T&uacute ves como un cocinero est&aacute agarrando un cuchillo","{""Q0"":3}","trial","11649","survey-likert","37","259198","0.0-5.0-0.26","42","1","2022-11-29 21:25:05","2df368f4e41f066fd1c82c297b4a1108","139.47.74.57","Mozilla/5.0 (Windows NT 10.0; Win64; x64) AppleWebKit/537.36 (KHTML, like Gecko) Chrome/107.0.0.0 Safari/537.36","WebKit","Chrome","107.0.0.0","Windows","10.0","[0]","","71","3",""
"5750","You see how an owl is sitting on the branch <br> T&uacute ves como un b&uacuteho est&aacute reposando en una rama","{""Q0"":3}","trial","11649","survey-likert","38","264966","0.0-5.0-0.27","42","1","2022-11-29 21:25:05","2df368f4e41f066fd1c82c297b4a1108","139.47.74.57","Mozilla/5.0 (Windows NT 10.0; Win64; x64) AppleWebKit/537.36 (KHTML, like Gecko) Chrome/107.0.0.0 Safari/537.36","WebKit","Chrome","107.0.0.0","Windows","10.0","[0]","","69","3",""
"4564","You see how a zebra is playing with a horse <br> T&uacute ves como una cebra est&aacute jugando con un caballo","{""Q0"":4}","trial","11649","survey-likert","39","269549","0.0-5.0-0.28","42","1","2022-11-29 21:25:05","2df368f4e41f066fd1c82c297b4a1108","139.47.74.57","Mozilla/5.0 (Windows NT 10.0; Win64; x64) AppleWebKit/537.36 (KHTML, like Gecko) Chrome/107.0.0.0 Safari/537.36","WebKit","Chrome","107.0.0.0","Windows","10.0","[0]","","66","4",""
"4416","You see how a photographer is taking a photo of a lion <br> T&uacute ves como un fot&oacutegrafo est&aacute tomando una foto de un le&oacuten","{""Q0"":4}","trial","11649","survey-likert","40","273983","0.0-5.0-0.29","42","1","2022-11-29 21:25:05","2df368f4e41f066fd1c82c297b4a1108","139.47.74.57","Mozilla/5.0 (Windows NT 10.0; Win64; x64) AppleWebKit/537.36 (KHTML, like Gecko) Chrome/107.0.0.0 Safari/537.36","WebKit","Chrome","107.0.0.0","Windows","10.0","[0]","","72","4",""
"4917","You see how an old man is hammering a nail <br> T&uacute ves como un hombre anciano est&aacute martillando un clavo","{""Q0"":4}","trial","11649","survey-likert","41","278920","0.0-5.0-0.30","42","1","2022-11-29 21:25:05","2df368f4e41f066fd1c82c297b4a1108","139.47.74.57","Mozilla/5.0 (Windows NT 10.0; Win64; x64) AppleWebKit/537.36 (KHTML, like Gecko) Chrome/107.0.0.0 Safari/537.36","WebKit","Chrome","107.0.0.0","Windows","10.0","[0]","","29","4",""
"9941","You drop a watch on the laptop <br> T&uacute tiras un reloj al port&aacutetil","{""Q0"":3}","trial","11649","survey-likert","42","288879","0.0-5.0-0.31","42","1","2022-11-29 21:25:05","2df368f4e41f066fd1c82c297b4a1108","139.47.74.57","Mozilla/5.0 (Windows NT 10.0; Win64; x64) AppleWebKit/537.36 (KHTML, like Gecko) Chrome/107.0.0.0 Safari/537.36","WebKit","Chrome","107.0.0.0","Windows","10.0","[0]","","37","3",""
"4914","You drop a bowling ball on an egg <br> T&uacute tiras una bola de boliche a un huevo","{""Q0"":3}","trial","11649","survey-likert","43","293811","0.0-5.0-0.32","42","1","2022-11-29 21:25:05","2df368f4e41f066fd1c82c297b4a1108","139.47.74.57","Mozilla/5.0 (Windows NT 10.0; Win64; x64) AppleWebKit/537.36 (KHTML, like Gecko) Chrome/107.0.0.0 Safari/537.36","WebKit","Chrome","107.0.0.0","Windows","10.0","[0]","","6","3",""
"6589","You see how an astronaut is putting on a space suit <br> T&uacute ves como un astronauta se est&aacute poniendo su traje espacial","{""Q0"":3}","trial","11649","survey-likert","44","300423","0.0-5.0-0.33","42","1","2022-11-29 21:25:05","2df368f4e41f066fd1c82c297b4a1108","139.47.74.57","Mozilla/5.0 (Windows NT 10.0; Win64; x64) AppleWebKit/537.36 (KHTML, like Gecko) Chrome/107.0.0.0 Safari/537.36","WebKit","Chrome","107.0.0.0","Windows","10.0","[0]","","33","3",""
"5669","You see how a giraffe is playing with a zebra <br> T&uacute ves como una jirafa est&aacute jugando con una cebra","{""Q0"":4}","trial","11649","survey-likert","45","306110","0.0-5.0-0.34","42","1","2022-11-29 21:25:05","2df368f4e41f066fd1c82c297b4a1108","139.47.74.57","Mozilla/5.0 (Windows NT 10.0; Win64; x64) AppleWebKit/537.36 (KHTML, like Gecko) Chrome/107.0.0.0 Safari/537.36","WebKit","Chrome","107.0.0.0","Windows","10.0","[0]","","65","4",""
"3284","You drop a cushion on the magazine <br> T&uacute tiras un coj&iacuten a la revista","{""Q0"":3}","trial","11649","survey-likert","46","309412","0.0-5.0-0.35","42","1","2022-11-29 21:25:05","2df368f4e41f066fd1c82c297b4a1108","139.47.74.57","Mozilla/5.0 (Windows NT 10.0; Win64; x64) AppleWebKit/537.36 (KHTML, like Gecko) Chrome/107.0.0.0 Safari/537.36","WebKit","Chrome","107.0.0.0","Windows","10.0","[0]","","38","3",""
"5964","You see how a woman is paying with a debit card <br> T&uacute ves como una mujer est&aacute pagando con una tarjeta de d&eacutebito","{""Q0"":4}","trial","11649","survey-likert","47","315395","0.0-5.0-0.36","42","1","2022-11-29 21:25:05","2df368f4e41f066fd1c82c297b4a1108","139.47.74.57","Mozilla/5.0 (Windows NT 10.0; Win64; x64) AppleWebKit/537.36 (KHTML, like Gecko) Chrome/107.0.0.0 Safari/537.36","WebKit","Chrome","107.0.0.0","Windows","10.0","[0]","","64","4",""
"8146","You see how a mouse is eating cheese <br> T&uacute ves como el rat&oacuten est&aacute comiendo queso","{""Q0"":3}","trial","11649","survey-likert","48","323560","0.0-5.0-0.37","42","1","2022-11-29 21:25:05","2df368f4e41f066fd1c82c297b4a1108","139.47.74.57","Mozilla/5.0 (Windows NT 10.0; Win64; x64) AppleWebKit/537.36 (KHTML, like Gecko) Chrome/107.0.0.0 Safari/537.36","WebKit","Chrome","107.0.0.0","Windows","10.0","[0]","","56","3",""
"4844","You drop a fork on the plate <br> T&uacute tiras un tenedor al plato","{""Q0"":4}","trial","11649","survey-likert","49","328423","0.0-5.0-0.38","42","1","2022-11-29 21:25:05","2df368f4e41f066fd1c82c297b4a1108","139.47.74.57","Mozilla/5.0 (Windows NT 10.0; Win64; x64) AppleWebKit/537.36 (KHTML, like Gecko) Chrome/107.0.0.0 Safari/537.36","WebKit","Chrome","107.0.0.0","Windows","10.0","[0]","","26","4",""
"7167","You see how an actress is taking a microphone <br> T&uacute ves como una actriz est&aacute agarrando el micr&oacutefono","{""Q0"":3}","trial","11649","survey-likert","50","335609","0.0-5.0-0.39","42","1","2022-11-29 21:25:05","2df368f4e41f066fd1c82c297b4a1108","139.47.74.57","Mozilla/5.0 (Windows NT 10.0; Win64; x64) AppleWebKit/537.36 (KHTML, like Gecko) Chrome/107.0.0.0 Safari/537.36","WebKit","Chrome","107.0.0.0","Windows","10.0","[0]","","51","3",""
"5531","You drop a pencil on the shoe <br> T&uacute tiras un l&aacutepiz al zapato","{""Q0"":3}","trial","11649","survey-likert","51","341161","0.0-5.0-0.40","42","1","2022-11-29 21:25:05","2df368f4e41f066fd1c82c297b4a1108","139.47.74.57","Mozilla/5.0 (Windows NT 10.0; Win64; x64) AppleWebKit/537.36 (KHTML, like Gecko) Chrome/107.0.0.0 Safari/537.36","WebKit","Chrome","107.0.0.0","Windows","10.0","[0]","","40","3",""
"6362","You see how a doctor is taking a stethoscope <br> T&uacute ves como un doctor est&aacute agarrando un estetoscopio","{""Q0"":3}","trial","11649","survey-likert","52","347542","0.0-5.0-0.41","42","1","2022-11-29 21:25:05","2df368f4e41f066fd1c82c297b4a1108","139.47.74.57","Mozilla/5.0 (Windows NT 10.0; Win64; x64) AppleWebKit/537.36 (KHTML, like Gecko) Chrome/107.0.0.0 Safari/537.36","WebKit","Chrome","107.0.0.0","Windows","10.0","[0]","","49","3",""
"5294","You see how a donkey is drinking water <br> T&uacute ves como un burro est&aacute bebiendo agua","{""Q0"":4}","trial","11649","survey-likert","53","352858","0.0-5.0-0.42","42","1","2022-11-29 21:25:05","2df368f4e41f066fd1c82c297b4a1108","139.47.74.57","Mozilla/5.0 (Windows NT 10.0; Win64; x64) AppleWebKit/537.36 (KHTML, like Gecko) Chrome/107.0.0.0 Safari/537.36","WebKit","Chrome","107.0.0.0","Windows","10.0","[0]","","45","4",""
"5413","You drop a toothbrush on the sponge <br> T&uacute tiras un cepillo de dientes en la esponja","{""Q0"":4}","trial","11649","survey-likert","54","358290","0.0-5.0-0.43","42","1","2022-11-29 21:25:05","2df368f4e41f066fd1c82c297b4a1108","139.47.74.57","Mozilla/5.0 (Windows NT 10.0; Win64; x64) AppleWebKit/537.36 (KHTML, like Gecko) Chrome/107.0.0.0 Safari/537.36","WebKit","Chrome","107.0.0.0","Windows","10.0","[0]","","25","4",""
"4478","You drop a bowling ball on an iPAD <br> T&uacute tiras una bola de boliche a un iPad","{""Q0"":3}","trial","11649","survey-likert","55","362787","0.0-5.0-0.44","42","1","2022-11-29 21:25:05","2df368f4e41f066fd1c82c297b4a1108","139.47.74.57","Mozilla/5.0 (Windows NT 10.0; Win64; x64) AppleWebKit/537.36 (KHTML, like Gecko) Chrome/107.0.0.0 Safari/537.36","WebKit","Chrome","107.0.0.0","Windows","10.0","[0]","","12","3",""
"4388","You drop a ring on the newspaper <br> T&uacute tiras un anillo al peri&oacutedico","{""Q0"":3}","trial","11649","survey-likert","56","367194","0.0-5.0-0.45","42","1","2022-11-29 21:25:05","2df368f4e41f066fd1c82c297b4a1108","139.47.74.57","Mozilla/5.0 (Windows NT 10.0; Win64; x64) AppleWebKit/537.36 (KHTML, like Gecko) Chrome/107.0.0.0 Safari/537.36","WebKit","Chrome","107.0.0.0","Windows","10.0","[0]","","41","3",""
"6357","You see how a nurse is taking a syringe <br> T&uacute ves como una enfermera est&aacute agarrando una jeringuilla","{""Q0"":3}","trial","11649","survey-likert","57","373571","0.0-5.0-0.46","42","1","2022-11-29 21:25:05","2df368f4e41f066fd1c82c297b4a1108","139.47.74.57","Mozilla/5.0 (Windows NT 10.0; Win64; x64) AppleWebKit/537.36 (KHTML, like Gecko) Chrome/107.0.0.0 Safari/537.36","WebKit","Chrome","107.0.0.0","Windows","10.0","[0]","","48","3",""
"5937","You see how an elephant is eating a watermelon <br> T&uacute ves como un elefante est&aacute comiendo una sand&iacutea","{""Q0"":4}","trial","11649","survey-likert","58","379527","0.0-5.0-0.47","42","1","2022-11-29 21:25:05","2df368f4e41f066fd1c82c297b4a1108","139.47.74.57","Mozilla/5.0 (Windows NT 10.0; Win64; x64) AppleWebKit/537.36 (KHTML, like Gecko) Chrome/107.0.0.0 Safari/537.36","WebKit","Chrome","107.0.0.0","Windows","10.0","[0]","","31","4",""
"5794","You see how a thief is stealing a wallet <br> T&uacute ves como un ladr&oacuten est&aacute robando una billetera","{""Q0"":4}","trial","11649","survey-likert","59","385340","0.0-5.0-0.48","42","1","2022-11-29 21:25:05","2df368f4e41f066fd1c82c297b4a1108","139.47.74.57","Mozilla/5.0 (Windows NT 10.0; Win64; x64) AppleWebKit/537.36 (KHTML, like Gecko) Chrome/107.0.0.0 Safari/537.36","WebKit","Chrome","107.0.0.0","Windows","10.0","[0]","","68","4",""
"3988","You drop a bowling ball on an iPhone <br> T&uacute tiras una bola de boliche a un iPhone","{""Q0"":3}","trial","11649","survey-likert","60","389347","0.0-5.0-0.49","42","1","2022-11-29 21:25:05","2df368f4e41f066fd1c82c297b4a1108","139.47.74.57","Mozilla/5.0 (Windows NT 10.0; Win64; x64) AppleWebKit/537.36 (KHTML, like Gecko) Chrome/107.0.0.0 Safari/537.36","WebKit","Chrome","107.0.0.0","Windows","10.0","[0]","","13","3",""
"3207","You drop a bowling ball on a paper cup <br> T&uacute tiras una bola de boliche a un vaso de papel","{""Q0"":3}","trial","11649","survey-likert","61","392573","0.0-5.0-0.50","42","1","2022-11-29 21:25:05","2df368f4e41f066fd1c82c297b4a1108","139.47.74.57","Mozilla/5.0 (Windows NT 10.0; Win64; x64) AppleWebKit/537.36 (KHTML, like Gecko) Chrome/107.0.0.0 Safari/537.36","WebKit","Chrome","107.0.0.0","Windows","10.0","[0]","","24","3",""
"6202","You see how a president is writing in the notebook <br> T&uacute ves como un presidente est&aacute escribiendo en la libreta","{""Q0"":4}","trial","11649","survey-likert","62","398797","0.0-5.0-0.51","42","1","2022-11-29 21:25:05","2df368f4e41f066fd1c82c297b4a1108","139.47.74.57","Mozilla/5.0 (Windows NT 10.0; Win64; x64) AppleWebKit/537.36 (KHTML, like Gecko) Chrome/107.0.0.0 Safari/537.36","WebKit","Chrome","107.0.0.0","Windows","10.0","[0]","","63","4",""
"33424","You see how a butterfly is sitting on a flower <br> T&uacute ves como una mariposa est&aacute reposando en una flor","{""Q0"":3}","trial","11649","survey-likert","63","432245","0.0-5.0-0.52","42","1","2022-11-29 21:25:05","2df368f4e41f066fd1c82c297b4a1108","139.47.74.57","Mozilla/5.0 (Windows NT 10.0; Win64; x64) AppleWebKit/537.36 (KHTML, like Gecko) Chrome/107.0.0.0 Safari/537.36","WebKit","Chrome","107.0.0.0","Windows","10.0","[0]","","59","3",""
"4523","You drop a cabbage on the table <br> T&uacute tiras una col a la mesa","{""Q0"":4}","trial","11649","survey-likert","64","436791","0.0-5.0-0.53","42","1","2022-11-29 21:25:05","2df368f4e41f066fd1c82c297b4a1108","139.47.74.57","Mozilla/5.0 (Windows NT 10.0; Win64; x64) AppleWebKit/537.36 (KHTML, like Gecko) Chrome/107.0.0.0 Safari/537.36","WebKit","Chrome","107.0.0.0","Windows","10.0","[0]","","35","4",""
"3716","You drop a bowling ball on a ceramic plate <br> T&uacute tiras una bola de boliche a un plato de cer&aacutemica","{""Q0"":3}","trial","11649","survey-likert","65","440527","0.0-5.0-0.54","42","1","2022-11-29 21:25:05","2df368f4e41f066fd1c82c297b4a1108","139.47.74.57","Mozilla/5.0 (Windows NT 10.0; Win64; x64) AppleWebKit/537.36 (KHTML, like Gecko) Chrome/107.0.0.0 Safari/537.36","WebKit","Chrome","107.0.0.0","Windows","10.0","[0]","","19","3",""
"4105","You see how a boy is peeling a banana <br> T&uacute ves como un ni&ntildeo est&aacute pelando una banana","{""Q0"":4}","trial","11649","survey-likert","66","444655","0.0-5.0-0.55","42","1","2022-11-29 21:25:05","2df368f4e41f066fd1c82c297b4a1108","139.47.74.57","Mozilla/5.0 (Windows NT 10.0; Win64; x64) AppleWebKit/537.36 (KHTML, like Gecko) Chrome/107.0.0.0 Safari/537.36","WebKit","Chrome","107.0.0.0","Windows","10.0","[0]","","30","4",""
"5046","You see how a man is shaving his beard <br> T&uacute ves como un hombre se est&aacute afeitando la barba","{""Q0"":4}","trial","11649","survey-likert","67","449723","0.0-5.0-0.56","42","1","2022-11-29 21:25:05","2df368f4e41f066fd1c82c297b4a1108","139.47.74.57","Mozilla/5.0 (Windows NT 10.0; Win64; x64) AppleWebKit/537.36 (KHTML, like Gecko) Chrome/107.0.0.0 Safari/537.36","WebKit","Chrome","107.0.0.0","Windows","10.0","[0]","","43","4",""
"3492","You see how a parrot is eating an apple <br> T&uacute ves como un loro est&aacute comiendo una manzana","{""Q0"":4}","trial","11649","survey-likert","68","453235","0.0-5.0-0.57","42","1","2022-11-29 21:25:05","2df368f4e41f066fd1c82c297b4a1108","139.47.74.57","Mozilla/5.0 (Windows NT 10.0; Win64; x64) AppleWebKit/537.36 (KHTML, like Gecko) Chrome/107.0.0.0 Safari/537.36","WebKit","Chrome","107.0.0.0","Windows","10.0","[0]","","58","4",""
"2863","You drop a bowling ball on a rice cake <br> T&uacute tiras una bola de boliche a una tortita de arroz","{""Q0"":3}","trial","11649","survey-likert","69","456119","0.0-5.0-0.58","42","1","2022-11-29 21:25:05","2df368f4e41f066fd1c82c297b4a1108","139.47.74.57","Mozilla/5.0 (Windows NT 10.0; Win64; x64) AppleWebKit/537.36 (KHTML, like Gecko) Chrome/107.0.0.0 Safari/537.36","WebKit","Chrome","107.0.0.0","Windows","10.0","[0]","","18","3",""
"3783","You drop a bowling ball on a tile <br> T&uacute tiras una bola de boliche a una baldosa","{""Q0"":3}","trial","11649","survey-likert","70","459921","0.0-5.0-0.59","42","1","2022-11-29 21:25:05","2df368f4e41f066fd1c82c297b4a1108","139.47.74.57","Mozilla/5.0 (Windows NT 10.0; Win64; x64) AppleWebKit/537.36 (KHTML, like Gecko) Chrome/107.0.0.0 Safari/537.36","WebKit","Chrome","107.0.0.0","Windows","10.0","[0]","","22","3",""
"3676","You drop a bowling ball on a blackberry <br> T&uacute tiras una bola de boliche a una mora","{""Q0"":3}","trial","11649","survey-likert","71","463624","0.0-5.0-0.60","42","1","2022-11-29 21:25:05","2df368f4e41f066fd1c82c297b4a1108","139.47.74.57","Mozilla/5.0 (Windows NT 10.0; Win64; x64) AppleWebKit/537.36 (KHTML, like Gecko) Chrome/107.0.0.0 Safari/537.36","WebKit","Chrome","107.0.0.0","Windows","10.0","[0]","","8","3",""
"4581","You drop a remote on the rug <br> T&uacute tiras un control remoto a la alfombra","{""Q0"":4}","trial","11649","survey-likert","72","468296","0.0-5.0-0.61","42","1","2022-11-29 21:25:05","2df368f4e41f066fd1c82c297b4a1108","139.47.74.57","Mozilla/5.0 (Windows NT 10.0; Win64; x64) AppleWebKit/537.36 (KHTML, like Gecko) Chrome/107.0.0.0 Safari/537.36","WebKit","Chrome","107.0.0.0","Windows","10.0","[0]","","39","4",""
"4519","You see how a teenage girl is playing the piano <br> T&uacute ves como una ni&ntildea adolescente est&aacute tocando el piano","{""Q0"":4}","trial","11649","survey-likert","73","472836","0.0-5.0-0.62","42","1","2022-11-29 21:25:05","2df368f4e41f066fd1c82c297b4a1108","139.47.74.57","Mozilla/5.0 (Windows NT 10.0; Win64; x64) AppleWebKit/537.36 (KHTML, like Gecko) Chrome/107.0.0.0 Safari/537.36","WebKit","Chrome","107.0.0.0","Windows","10.0","[0]","","54","4",""
"4808","You see how a cat is drinking water from a bowl <br> T&uacute ves como un gato est&aacute bebiendo agua de un cuenco","{""Q0"":4}","trial","11649","survey-likert","74","477669","0.0-5.0-0.63","42","1","2022-11-29 21:25:05","2df368f4e41f066fd1c82c297b4a1108","139.47.74.57","Mozilla/5.0 (Windows NT 10.0; Win64; x64) AppleWebKit/537.36 (KHTML, like Gecko) Chrome/107.0.0.0 Safari/537.36","WebKit","Chrome","107.0.0.0","Windows","10.0","[0]","","28","4",""
"4913","You see how a dentist is drinking a can of cola <br> T&uacute ves como un dentista est&aacute bebiendo una lata de cola","{""Q0"":3}","trial","11649","survey-likert","75","482610","0.0-5.0-0.64","42","1","2022-11-29 21:25:05","2df368f4e41f066fd1c82c297b4a1108","139.47.74.57","Mozilla/5.0 (Windows NT 10.0; Win64; x64) AppleWebKit/537.36 (KHTML, like Gecko) Chrome/107.0.0.0 Safari/537.36","WebKit","Chrome","107.0.0.0","Windows","10.0","[0]","","47","3",""
"5169","You drop a bowling ball on a light bulb <br> T&uacute tiras una bola de boliche a una bombilla","{""Q0"":3}","trial","11649","survey-likert","76","487803","0.0-5.0-0.65","42","1","2022-11-29 21:25:05","2df368f4e41f066fd1c82c297b4a1108","139.47.74.57","Mozilla/5.0 (Windows NT 10.0; Win64; x64) AppleWebKit/537.36 (KHTML, like Gecko) Chrome/107.0.0.0 Safari/537.36","WebKit","Chrome","107.0.0.0","Windows","10.0","[0]","","14","3",""
"11897","You drop a bowling ball on a hat <br> T&uacute tiras una bola de boliche a una gorra","{""Q0"":3}","trial","11649","survey-likert","77","499723","0.0-5.0-0.66","42","1","2022-11-29 21:25:05","2df368f4e41f066fd1c82c297b4a1108","139.47.74.57","Mozilla/5.0 (Windows NT 10.0; Win64; x64) AppleWebKit/537.36 (KHTML, like Gecko) Chrome/107.0.0.0 Safari/537.36","WebKit","Chrome","107.0.0.0","Windows","10.0","[0]","","10","3",""
"3951","You see how a man is playing with a cat <br> T&uacute ves como un hombre est&aacute jugando con un gato","{""Q0"":4}","trial","11649","survey-likert","78","503704","0.0-5.0-0.67","42","1","2022-11-29 21:25:05","2df368f4e41f066fd1c82c297b4a1108","139.47.74.57","Mozilla/5.0 (Windows NT 10.0; Win64; x64) AppleWebKit/537.36 (KHTML, like Gecko) Chrome/107.0.0.0 Safari/537.36","WebKit","Chrome","107.0.0.0","Windows","10.0","[0]","","67","4",""
"5727","You drop a bowling ball on an empty can of beer <br> T&uacute tiras una bola de boliche a una lata de cerveza vac&iacutea","{""Q0"":3}","trial","11649","survey-likert","79","509455","0.0-5.0-0.68","42","1","2022-11-29 21:25:05","2df368f4e41f066fd1c82c297b4a1108","139.47.74.57","Mozilla/5.0 (Windows NT 10.0; Win64; x64) AppleWebKit/537.36 (KHTML, like Gecko) Chrome/107.0.0.0 Safari/537.36","WebKit","Chrome","107.0.0.0","Windows","10.0","[0]","","3","3",""
"6201","You see how a panda is resting on a tree <br> T&uacute ves como un panda est&aacute descansando en un &aacuterbol","{""Q0"":4}","trial","11649","survey-likert","80","515677","0.0-5.0-0.69","42","1","2022-11-29 21:25:05","2df368f4e41f066fd1c82c297b4a1108","139.47.74.57","Mozilla/5.0 (Windows NT 10.0; Win64; x64) AppleWebKit/537.36 (KHTML, like Gecko) Chrome/107.0.0.0 Safari/537.36","WebKit","Chrome","107.0.0.0","Windows","10.0","[0]","","57","4",""
"2815","You drop a bowling ball on a wine glass <br> T&uacute tiras una bola de boliche a una copa de vino","{""Q0"":3}","trial","11649","survey-likert","81","518514","0.0-5.0-0.70","42","1","2022-11-29 21:25:05","2df368f4e41f066fd1c82c297b4a1108","139.47.74.57","Mozilla/5.0 (Windows NT 10.0; Win64; x64) AppleWebKit/537.36 (KHTML, like Gecko) Chrome/107.0.0.0 Safari/537.36","WebKit","Chrome","107.0.0.0","Windows","10.0","[0]","","5","3",""
"2241","You drop a bowling ball on a piece of cake <br> T&uacute tiras una bola de boliche a un trozo de pastel","{""Q0"":3}","trial","11649","survey-likert","82","520776","0.0-5.0-0.71","42","1","2022-11-29 21:25:05","2df368f4e41f066fd1c82c297b4a1108","139.47.74.57","Mozilla/5.0 (Windows NT 10.0; Win64; x64) AppleWebKit/537.36 (KHTML, like Gecko) Chrome/107.0.0.0 Safari/537.36","WebKit","Chrome","107.0.0.0","Windows","10.0","[0]","","2","3",""
"3808","
    <p style=""font-size:20px;""> You have completed the experiment portion! </p>
    <p style=""font-size:20px;""> Before you are done, we would like you to answer some basic demographic questions. </p>
    <p style=""font-size:20px;""> Note that your answers to these questions will not affect your compensation/credit. </p>
    <p style=""font-size:20px;""> Click the button below to continue.</p>
    ","0","demo","11649","html-button-response","83","524607","0.0-6.0","42","1","2022-11-29 21:25:05","2df368f4e41f066fd1c82c297b4a1108","139.47.74.57","Mozilla/5.0 (Windows NT 10.0; Win64; x64) AppleWebKit/537.36 (KHTML, like Gecko) Chrome/107.0.0.0 Safari/537.36","WebKit","Chrome","107.0.0.0","Windows","10.0","","","","",""
"15130","","{""Age"":""22"",""Gender"":""Female"",""Education"":""15""}","demo","11649","survey-text","84","539756","0.0-7.0-0.0","42","1","2022-11-29 21:25:05","2df368f4e41f066fd1c82c297b4a1108","139.47.74.57","Mozilla/5.0 (Windows NT 10.0; Win64; x64) AppleWebKit/537.36 (KHTML, like Gecko) Chrome/107.0.0.0 Safari/537.36","WebKit","Chrome","107.0.0.0","Windows","10.0","","","","",""
"4448","","{""Race"":[""Asian""]}","demo","11649","survey-multi-select","85","544224","0.0-7.0-1.0","42","1","2022-11-29 21:25:05","2df368f4e41f066fd1c82c297b4a1108","139.47.74.57","Mozilla/5.0 (Windows NT 10.0; Win64; x64) AppleWebKit/537.36 (KHTML, like Gecko) Chrome/107.0.0.0 Safari/537.36","WebKit","Chrome","107.0.0.0","Windows","10.0","[0]","","","",""
"9011","","{""Latino"":""Prefer not to respond"",""Alert"":""Morning""}","demo","11649","survey-multi-choice","86","553258","0.0-7.0-2.0","42","1","2022-11-29 21:25:05","2df368f4e41f066fd1c82c297b4a1108","139.47.74.57","Mozilla/5.0 (Windows NT 10.0; Win64; x64) AppleWebKit/537.36 (KHTML, like Gecko) Chrome/107.0.0.0 Safari/537.36","WebKit","Chrome","107.0.0.0","Windows","10.0","[0,1]","","","",""
"4620","","{""Q0"":""""}","demo","11649","survey-text","87","557904","0.0-7.0-3.0","42","1","2022-11-29 21:25:05","2df368f4e41f066fd1c82c297b4a1108","139.47.74.57","Mozilla/5.0 (Windows NT 10.0; Win64; x64) AppleWebKit/537.36 (KHTML, like Gecko) Chrome/107.0.0.0 Safari/537.36","WebKit","Chrome","107.0.0.0","Windows","10.0","","","","",""
"30588","<p>Thank you for participating! </p><strong>Your completion code is: CXEJB7NH. Please copy-paste this code and submit it on Prolific.</strong><p>Click <a href=""https://drive.google.com/file/d/1c70cdHFlc0AaR6RujLWLJwWkv1RbHQJY/view?usp=sharing"" target=""_blank"" rel=""noopener noreferrer"">here</a> to access the debriefing form and know more about our research. <p> Please click the button below to finish the experiment and save your data.</p> <p> IMPORTANT: Please <strong>do not leave this page </strong> without clicking the button below.</p> <p> You may close the tab/window after you click the button below.","0","","","html-button-response","88","588500","0.0-8.0","42","1","2022-11-29 21:25:05","2df368f4e41f066fd1c82c297b4a1108","139.47.74.57","Mozilla/5.0 (Windows NT 10.0; Win64; x64) AppleWebKit/537.36 (KHTML, like Gecko) Chrome/107.0.0.0 Safari/537.36","WebKit","Chrome","107.0.0.0","Windows","10.0","","","","",""
