"rt","stimulus","response","typeoftrial","subject","trial_type","trial_index","time_elapsed","internal_node_id","run_id","condition","recorded_at","source_code_version","ip","user_agent","device","browser","browser_version","platform","platform_version","question_order","practice_rating","sentence_num","rating","Experiment"
"8745","
        <p style=""font-size:20px;""> Welcome! Thank you for your interest in our study. </p>
        <p style=""font-size:20px;""> This study is being conducted by researchers at Bowdoin College.</p>
        <p style=""font-size:20px;""> In this experiment, you will be asked to rate the accuracy of English and Spanish translations.</p>
        <p style=""font-size:20px;""> The entire experiment should not last more than 20 minutes. You will be paid $3 USD for your participation. </p>
        <p style=""font-size:20px;""> Please click <a href = ""https://drive.google.com/file/d/1L92a02eEKCpaAEipmqDcBCDR7rsarqFE/view?usp=sharing"" target = ""_blank"">here</a> to read the full consent form. </p>
        <p style=""font-size:20px;""> If you agree to participate, please click the button below to continue to experiment instructions.</p>
        ","0","consent","44462","html-button-response","0","8750","0.0-0.0","43","1","2022-11-29 21:25:07","2df368f4e41f066fd1c82c297b4a1108","177.231.24.50","Mozilla/5.0 (Windows NT 10.0; Win64; x64) AppleWebKit/537.36 (KHTML, like Gecko) Chrome/107.0.0.0 Safari/537.36","WebKit","Chrome","107.0.0.0","Windows","10.0","","","","",""
"3801","","{""ID"":""5b3455bf532e3d00018e6e8b""}","ID","44462","survey-text","1","12561","0.0-1.0","43","1","2022-11-29 21:25:07","2df368f4e41f066fd1c82c297b4a1108","177.231.24.50","Mozilla/5.0 (Windows NT 10.0; Win64; x64) AppleWebKit/537.36 (KHTML, like Gecko) Chrome/107.0.0.0 Safari/537.36","WebKit","Chrome","107.0.0.0","Windows","10.0","","","","",""
"20099","
        <p style=""font-size:20px;""> You are about to begin the practice test. </p>
        <p style=""font-size:20px;""> On each trial, you will see a sentence in English and its corresponding Spanish translation. </p>
        <p style=""font-size:20px;""> You will rate the accuracy of the translation on a scale from ""Not at all accurate"" to ""Very accurate."" </p>
        <p style=""font-size:20px;""> If you rate the translation as ""Somewhat innaccurate"" or ""Not at all accurate,"" you will be asked to provide your own translation or a reason why the translation is inaccurate. </p>
        <p style=""font-size:20px;""> Click the button below to continue to the practice session.</p>","0","instructions","44462","html-button-response","2","32663","0.0-2.0","43","1","2022-11-29 21:25:07","2df368f4e41f066fd1c82c297b4a1108","177.231.24.50","Mozilla/5.0 (Windows NT 10.0; Win64; x64) AppleWebKit/537.36 (KHTML, like Gecko) Chrome/107.0.0.0 Safari/537.36","WebKit","Chrome","107.0.0.0","Windows","10.0","","","","",""
"27651","You see how a duck is playing with a pumpkin <br> T&uacute ves como un pato est&aacute jugando con una calabaza","{""Q0"":4}","practice","44462","survey-likert","3","60319","0.0-3.0-0.0","43","1","2022-11-29 21:25:07","2df368f4e41f066fd1c82c297b4a1108","177.231.24.50","Mozilla/5.0 (Windows NT 10.0; Win64; x64) AppleWebKit/537.36 (KHTML, like Gecko) Chrome/107.0.0.0 Safari/537.36","WebKit","Chrome","107.0.0.0","Windows","10.0","[0]","4","","",""
"17905","You see how a tiger is playing with a goose <br> T&uacute ves como un le&oacuten come una pizza","{""Q0"":0}","practice","44462","survey-likert","4","78232","0.0-3.0-0.1","43","1","2022-11-29 21:25:07","2df368f4e41f066fd1c82c297b4a1108","177.231.24.50","Mozilla/5.0 (Windows NT 10.0; Win64; x64) AppleWebKit/537.36 (KHTML, like Gecko) Chrome/107.0.0.0 Safari/537.36","WebKit","Chrome","107.0.0.0","Windows","10.0","[0]","0","","",""
"31642","You see how a tiger is playing with a goose <br> T&uacute ves como un le&oacuten come una pizza","{""Q0"":""en la oracion primera menciona la palabra ganso y en la segunda frase dice pizza""}","practice_low_rate","44462","survey-text","5","109885","0.0-3.0-1.1-0.1","43","1","2022-11-29 21:25:07","2df368f4e41f066fd1c82c297b4a1108","177.231.24.50","Mozilla/5.0 (Windows NT 10.0; Win64; x64) AppleWebKit/537.36 (KHTML, like Gecko) Chrome/107.0.0.0 Safari/537.36","WebKit","Chrome","107.0.0.0","Windows","10.0","","","5","",""
"17013","You drop a bowling ball on a mircrowave <br> T&uacute tiras una bola de boliche a un horno","{""Q0"":3}","practice","44462","survey-likert","6","126901","0.0-3.0-0.2","43","1","2022-11-29 21:25:07","2df368f4e41f066fd1c82c297b4a1108","177.231.24.50","Mozilla/5.0 (Windows NT 10.0; Win64; x64) AppleWebKit/537.36 (KHTML, like Gecko) Chrome/107.0.0.0 Safari/537.36","WebKit","Chrome","107.0.0.0","Windows","10.0","[0]","3","","",""
"13843","You drop a rock on a phone <br> T&uacute tiras una piedra a un tel&eacutefono","{""Q0"":4}","practice","44462","survey-likert","7","140749","0.0-3.0-0.3","43","1","2022-11-29 21:25:07","2df368f4e41f066fd1c82c297b4a1108","177.231.24.50","Mozilla/5.0 (Windows NT 10.0; Win64; x64) AppleWebKit/537.36 (KHTML, like Gecko) Chrome/107.0.0.0 Safari/537.36","WebKit","Chrome","107.0.0.0","Windows","10.0","[0]","4","","",""
"22819","You see how a teacher is drawing a picture <br> T&uacute ves como un maestro pinta una foto","{""Q0"":3}","practice","44462","survey-likert","8","163574","0.0-3.0-0.4","43","1","2022-11-29 21:25:07","2df368f4e41f066fd1c82c297b4a1108","177.231.24.50","Mozilla/5.0 (Windows NT 10.0; Win64; x64) AppleWebKit/537.36 (KHTML, like Gecko) Chrome/107.0.0.0 Safari/537.36","WebKit","Chrome","107.0.0.0","Windows","10.0","[0]","3","","",""
"9056","You see how an artist is running <br> T&uacute ves como un artista est&aacute corriendo","{""Q0"":4}","practice","44462","survey-likert","9","172635","0.0-3.0-0.5","43","1","2022-11-29 21:25:07","2df368f4e41f066fd1c82c297b4a1108","177.231.24.50","Mozilla/5.0 (Windows NT 10.0; Win64; x64) AppleWebKit/537.36 (KHTML, like Gecko) Chrome/107.0.0.0 Safari/537.36","WebKit","Chrome","107.0.0.0","Windows","10.0","[0]","4","","",""
"6690","<p style=""font-size:20px;"">You have now completed the practice session! </p>
        <p style=""font-size:20px;"">You will now move on to the main experiment. </p>
        <p style=""font-size:20px;"">Please click the button below to continue. </p>","0","movetoexp","44462","html-button-response","10","179332","0.0-4.0","43","1","2022-11-29 21:25:07","2df368f4e41f066fd1c82c297b4a1108","177.231.24.50","Mozilla/5.0 (Windows NT 10.0; Win64; x64) AppleWebKit/537.36 (KHTML, like Gecko) Chrome/107.0.0.0 Safari/537.36","WebKit","Chrome","107.0.0.0","Windows","10.0","","","","",""
"10078","You drop a remote on the rug <br> T&uacute tiras un control remoto a la alfombra","{""Q0"":4}","trial","44462","survey-likert","11","189413","0.0-5.0-0.0","43","1","2022-11-29 21:25:07","2df368f4e41f066fd1c82c297b4a1108","177.231.24.50","Mozilla/5.0 (Windows NT 10.0; Win64; x64) AppleWebKit/537.36 (KHTML, like Gecko) Chrome/107.0.0.0 Safari/537.36","WebKit","Chrome","107.0.0.0","Windows","10.0","[0]","","39","4",""
"13334","You drop a bowling ball on a paper cup <br> T&uacute tiras una bola de boliche a un vaso de papel","{""Q0"":4}","trial","44462","survey-likert","12","202753","0.0-5.0-0.1","43","1","2022-11-29 21:25:07","2df368f4e41f066fd1c82c297b4a1108","177.231.24.50","Mozilla/5.0 (Windows NT 10.0; Win64; x64) AppleWebKit/537.36 (KHTML, like Gecko) Chrome/107.0.0.0 Safari/537.36","WebKit","Chrome","107.0.0.0","Windows","10.0","[0]","","24","4",""
"13835","You see how a woman is paying with a debit card <br> T&uacute ves como una mujer est&aacute pagando con una tarjeta de d&eacutebito","{""Q0"":4}","trial","44462","survey-likert","13","216596","0.0-5.0-0.2","43","1","2022-11-29 21:25:07","2df368f4e41f066fd1c82c297b4a1108","177.231.24.50","Mozilla/5.0 (Windows NT 10.0; Win64; x64) AppleWebKit/537.36 (KHTML, like Gecko) Chrome/107.0.0.0 Safari/537.36","WebKit","Chrome","107.0.0.0","Windows","10.0","[0]","","64","4",""
"7408","You see how a cat is drinking water from a bowl <br> T&uacute ves como un gato est&aacute bebiendo agua de un cuenco","{""Q0"":4}","trial","44462","survey-likert","14","224010","0.0-5.0-0.3","43","1","2022-11-29 21:25:07","2df368f4e41f066fd1c82c297b4a1108","177.231.24.50","Mozilla/5.0 (Windows NT 10.0; Win64; x64) AppleWebKit/537.36 (KHTML, like Gecko) Chrome/107.0.0.0 Safari/537.36","WebKit","Chrome","107.0.0.0","Windows","10.0","[0]","","28","4",""
"4535","You drop a fork on the plate <br> T&uacute tiras un tenedor al plato","{""Q0"":3}","trial","44462","survey-likert","15","228550","0.0-5.0-0.4","43","1","2022-11-29 21:25:07","2df368f4e41f066fd1c82c297b4a1108","177.231.24.50","Mozilla/5.0 (Windows NT 10.0; Win64; x64) AppleWebKit/537.36 (KHTML, like Gecko) Chrome/107.0.0.0 Safari/537.36","WebKit","Chrome","107.0.0.0","Windows","10.0","[0]","","26","3",""
"5053","You drop a keyboard on the bed <br> T&uacute tiras un teclado a la cama","{""Q0"":3}","trial","44462","survey-likert","16","233608","0.0-5.0-0.5","43","1","2022-11-29 21:25:07","2df368f4e41f066fd1c82c297b4a1108","177.231.24.50","Mozilla/5.0 (Windows NT 10.0; Win64; x64) AppleWebKit/537.36 (KHTML, like Gecko) Chrome/107.0.0.0 Safari/537.36","WebKit","Chrome","107.0.0.0","Windows","10.0","[0]","","36","3",""
"7526","You see how a mouse is eating cheese <br> T&uacute ves como el rat&oacuten est&aacute comiendo queso","{""Q0"":4}","trial","44462","survey-likert","17","241139","0.0-5.0-0.6","43","1","2022-11-29 21:25:07","2df368f4e41f066fd1c82c297b4a1108","177.231.24.50","Mozilla/5.0 (Windows NT 10.0; Win64; x64) AppleWebKit/537.36 (KHTML, like Gecko) Chrome/107.0.0.0 Safari/537.36","WebKit","Chrome","107.0.0.0","Windows","10.0","[0]","","56","4",""
"4895","You see how a puppy is playing with a ball <br> T&uacute ves como un cachorro est&aacute jugando con una pelota","{""Q0"":4}","trial","44462","survey-likert","18","246039","0.0-5.0-0.7","43","1","2022-11-29 21:25:07","2df368f4e41f066fd1c82c297b4a1108","177.231.24.50","Mozilla/5.0 (Windows NT 10.0; Win64; x64) AppleWebKit/537.36 (KHTML, like Gecko) Chrome/107.0.0.0 Safari/537.36","WebKit","Chrome","107.0.0.0","Windows","10.0","[0]","","34","4",""
"12971","You see how a doctor is taking a stethoscope <br> T&uacute ves como un doctor est&aacute agarrando un estetoscopio","{""Q0"":4}","trial","44462","survey-likert","19","259015","0.0-5.0-0.8","43","1","2022-11-29 21:25:07","2df368f4e41f066fd1c82c297b4a1108","177.231.24.50","Mozilla/5.0 (Windows NT 10.0; Win64; x64) AppleWebKit/537.36 (KHTML, like Gecko) Chrome/107.0.0.0 Safari/537.36","WebKit","Chrome","107.0.0.0","Windows","10.0","[0]","","49","4",""
"8423","You see how a president is writing in the notebook <br> T&uacute ves como un presidente est&aacute escribiendo en la libreta","{""Q0"":4}","trial","44462","survey-likert","20","267443","0.0-5.0-0.9","43","1","2022-11-29 21:25:07","2df368f4e41f066fd1c82c297b4a1108","177.231.24.50","Mozilla/5.0 (Windows NT 10.0; Win64; x64) AppleWebKit/537.36 (KHTML, like Gecko) Chrome/107.0.0.0 Safari/537.36","WebKit","Chrome","107.0.0.0","Windows","10.0","[0]","","63","4",""
"5997","You see how a hairdresser is taking scissors <br> T&uacute ves como una peluquera est&aacute agarrando las tijeras","{""Q0"":4}","trial","44462","survey-likert","21","273445","0.0-5.0-0.10","43","1","2022-11-29 21:25:07","2df368f4e41f066fd1c82c297b4a1108","177.231.24.50","Mozilla/5.0 (Windows NT 10.0; Win64; x64) AppleWebKit/537.36 (KHTML, like Gecko) Chrome/107.0.0.0 Safari/537.36","WebKit","Chrome","107.0.0.0","Windows","10.0","[0]","","60","4",""
"10082","You see how a horse is chewing hay <br> T&uacute ves como un caballo est&aacute masticando el heno","{""Q0"":4}","trial","44462","survey-likert","22","283533","0.0-5.0-0.11","43","1","2022-11-29 21:25:07","2df368f4e41f066fd1c82c297b4a1108","177.231.24.50","Mozilla/5.0 (Windows NT 10.0; Win64; x64) AppleWebKit/537.36 (KHTML, like Gecko) Chrome/107.0.0.0 Safari/537.36","WebKit","Chrome","107.0.0.0","Windows","10.0","[0]","","55","4",""
"5244","You see how a pilot is reading a book <br> T&uacute ves como un piloto est&aacute leyendo un libro","{""Q0"":4}","trial","44462","survey-likert","23","288782","0.0-5.0-0.12","43","1","2022-11-29 21:25:07","2df368f4e41f066fd1c82c297b4a1108","177.231.24.50","Mozilla/5.0 (Windows NT 10.0; Win64; x64) AppleWebKit/537.36 (KHTML, like Gecko) Chrome/107.0.0.0 Safari/537.36","WebKit","Chrome","107.0.0.0","Windows","10.0","[0]","","61","4",""
"20706","You drop a needle on the mouse pad <br> T&uacute tiras una aguja a la alfombrilla para el rat&oacuten","{""Q0"":4}","trial","44462","survey-likert","24","309494","0.0-5.0-0.13","43","1","2022-11-29 21:25:07","2df368f4e41f066fd1c82c297b4a1108","177.231.24.50","Mozilla/5.0 (Windows NT 10.0; Win64; x64) AppleWebKit/537.36 (KHTML, like Gecko) Chrome/107.0.0.0 Safari/537.36","WebKit","Chrome","107.0.0.0","Windows","10.0","[0]","","42","4",""
"4515","You drop a ring on the newspaper <br> T&uacute tiras un anillo al peri&oacutedico","{""Q0"":4}","trial","44462","survey-likert","25","314015","0.0-5.0-0.14","43","1","2022-11-29 21:25:07","2df368f4e41f066fd1c82c297b4a1108","177.231.24.50","Mozilla/5.0 (Windows NT 10.0; Win64; x64) AppleWebKit/537.36 (KHTML, like Gecko) Chrome/107.0.0.0 Safari/537.36","WebKit","Chrome","107.0.0.0","Windows","10.0","[0]","","41","4",""
"28471","You drop a bowling ball on a ceramic plate <br> T&uacute tiras una bola de boliche a un plato de cer&aacutemica","{""Q0"":4}","trial","44462","survey-likert","26","342491","0.0-5.0-0.15","43","1","2022-11-29 21:25:07","2df368f4e41f066fd1c82c297b4a1108","177.231.24.50","Mozilla/5.0 (Windows NT 10.0; Win64; x64) AppleWebKit/537.36 (KHTML, like Gecko) Chrome/107.0.0.0 Safari/537.36","WebKit","Chrome","107.0.0.0","Windows","10.0","[0]","","19","4",""
"5861","You see how a giraffe is playing with a zebra <br> T&uacute ves como una jirafa est&aacute jugando con una cebra","{""Q0"":4}","trial","44462","survey-likert","27","348359","0.0-5.0-0.16","43","1","2022-11-29 21:25:07","2df368f4e41f066fd1c82c297b4a1108","177.231.24.50","Mozilla/5.0 (Windows NT 10.0; Win64; x64) AppleWebKit/537.36 (KHTML, like Gecko) Chrome/107.0.0.0 Safari/537.36","WebKit","Chrome","107.0.0.0","Windows","10.0","[0]","","65","4",""
"6772","You drop a bowling ball on a wine glass <br> T&uacute tiras una bola de boliche a una copa de vino","{""Q0"":4}","trial","44462","survey-likert","28","355136","0.0-5.0-0.17","43","1","2022-11-29 21:25:07","2df368f4e41f066fd1c82c297b4a1108","177.231.24.50","Mozilla/5.0 (Windows NT 10.0; Win64; x64) AppleWebKit/537.36 (KHTML, like Gecko) Chrome/107.0.0.0 Safari/537.36","WebKit","Chrome","107.0.0.0","Windows","10.0","[0]","","5","4",""
"5650","You see how a cook is taking a knife <br> T&uacute ves como un cocinero est&aacute agarrando un cuchillo","{""Q0"":3}","trial","44462","survey-likert","29","360790","0.0-5.0-0.18","43","1","2022-11-29 21:25:07","2df368f4e41f066fd1c82c297b4a1108","177.231.24.50","Mozilla/5.0 (Windows NT 10.0; Win64; x64) AppleWebKit/537.36 (KHTML, like Gecko) Chrome/107.0.0.0 Safari/537.36","WebKit","Chrome","107.0.0.0","Windows","10.0","[0]","","71","3",""
"5908","You see how a butterfly is sitting on a flower <br> T&uacute ves como una mariposa est&aacute reposando en una flor","{""Q0"":4}","trial","44462","survey-likert","30","366703","0.0-5.0-0.19","43","1","2022-11-29 21:25:07","2df368f4e41f066fd1c82c297b4a1108","177.231.24.50","Mozilla/5.0 (Windows NT 10.0; Win64; x64) AppleWebKit/537.36 (KHTML, like Gecko) Chrome/107.0.0.0 Safari/537.36","WebKit","Chrome","107.0.0.0","Windows","10.0","[0]","","59","4",""
"4661","You see how a musician is playing a guitar <br> T&uacute ves como un m&uacutesico est&aacute tocando la guitarra","{""Q0"":4}","trial","44462","survey-likert","31","371369","0.0-5.0-0.20","43","1","2022-11-29 21:25:07","2df368f4e41f066fd1c82c297b4a1108","177.231.24.50","Mozilla/5.0 (Windows NT 10.0; Win64; x64) AppleWebKit/537.36 (KHTML, like Gecko) Chrome/107.0.0.0 Safari/537.36","WebKit","Chrome","107.0.0.0","Windows","10.0","[0]","","27","4",""
"9760","You see how a man is shaving his beard <br> T&uacute ves como un hombre se est&aacute afeitando la barba","{""Q0"":4}","trial","44462","survey-likert","32","381134","0.0-5.0-0.21","43","1","2022-11-29 21:25:07","2df368f4e41f066fd1c82c297b4a1108","177.231.24.50","Mozilla/5.0 (Windows NT 10.0; Win64; x64) AppleWebKit/537.36 (KHTML, like Gecko) Chrome/107.0.0.0 Safari/537.36","WebKit","Chrome","107.0.0.0","Windows","10.0","[0]","","43","4",""
"15345","You drop a bowling ball on a donut <br> T&uacute tiras una bola de boliche a una rosquilla","{""Q0"":4}","trial","44462","survey-likert","33","396484","0.0-5.0-0.22","43","1","2022-11-29 21:25:07","2df368f4e41f066fd1c82c297b4a1108","177.231.24.50","Mozilla/5.0 (Windows NT 10.0; Win64; x64) AppleWebKit/537.36 (KHTML, like Gecko) Chrome/107.0.0.0 Safari/537.36","WebKit","Chrome","107.0.0.0","Windows","10.0","[0]","","17","4",""
"10245","You see how a photographer is taking a photo of a lion <br> T&uacute ves como un fot&oacutegrafo est&aacute tomando una foto de un le&oacuten","{""Q0"":4}","trial","44462","survey-likert","34","406734","0.0-5.0-0.23","43","1","2022-11-29 21:25:07","2df368f4e41f066fd1c82c297b4a1108","177.231.24.50","Mozilla/5.0 (Windows NT 10.0; Win64; x64) AppleWebKit/537.36 (KHTML, like Gecko) Chrome/107.0.0.0 Safari/537.36","WebKit","Chrome","107.0.0.0","Windows","10.0","[0]","","72","4",""
"4436","You see how a boy is peeling a banana <br> T&uacute ves como un ni&ntildeo est&aacute pelando una banana","{""Q0"":4}","trial","44462","survey-likert","35","411176","0.0-5.0-0.24","43","1","2022-11-29 21:25:07","2df368f4e41f066fd1c82c297b4a1108","177.231.24.50","Mozilla/5.0 (Windows NT 10.0; Win64; x64) AppleWebKit/537.36 (KHTML, like Gecko) Chrome/107.0.0.0 Safari/537.36","WebKit","Chrome","107.0.0.0","Windows","10.0","[0]","","30","4",""
"5547","You see how an old man is hammering a nail <br> T&uacute ves como un hombre anciano est&aacute martillando un clavo","{""Q0"":4}","trial","44462","survey-likert","36","416728","0.0-5.0-0.25","43","1","2022-11-29 21:25:07","2df368f4e41f066fd1c82c297b4a1108","177.231.24.50","Mozilla/5.0 (Windows NT 10.0; Win64; x64) AppleWebKit/537.36 (KHTML, like Gecko) Chrome/107.0.0.0 Safari/537.36","WebKit","Chrome","107.0.0.0","Windows","10.0","[0]","","29","4",""
"7797","You drop a bowling ball on a cracker <br> T&uacute tiras una bola de boliche a una galleta","{""Q0"":3}","trial","44462","survey-likert","37","424530","0.0-5.0-0.26","43","1","2022-11-29 21:25:07","2df368f4e41f066fd1c82c297b4a1108","177.231.24.50","Mozilla/5.0 (Windows NT 10.0; Win64; x64) AppleWebKit/537.36 (KHTML, like Gecko) Chrome/107.0.0.0 Safari/537.36","WebKit","Chrome","107.0.0.0","Windows","10.0","[0]","","4","3",""
"7834","You see how a man is boiling potatoes <br> T&uacute ves a un hombre est&aacute hirviendo papas","{""Q0"":4}","trial","44462","survey-likert","38","432371","0.0-5.0-0.27","43","1","2022-11-29 21:25:07","2df368f4e41f066fd1c82c297b4a1108","177.231.24.50","Mozilla/5.0 (Windows NT 10.0; Win64; x64) AppleWebKit/537.36 (KHTML, like Gecko) Chrome/107.0.0.0 Safari/537.36","WebKit","Chrome","107.0.0.0","Windows","10.0","[0]","","46","4",""
"8230","You see how a nurse is taking a syringe <br> T&uacute ves como una enfermera est&aacute agarrando una jeringuilla","{""Q0"":4}","trial","44462","survey-likert","39","440606","0.0-5.0-0.28","43","1","2022-11-29 21:25:07","2df368f4e41f066fd1c82c297b4a1108","177.231.24.50","Mozilla/5.0 (Windows NT 10.0; Win64; x64) AppleWebKit/537.36 (KHTML, like Gecko) Chrome/107.0.0.0 Safari/537.36","WebKit","Chrome","107.0.0.0","Windows","10.0","[0]","","48","4",""
"4531","You see how a panda is resting on a tree <br> T&uacute ves como un panda est&aacute descansando en un &aacuterbol","{""Q0"":4}","trial","44462","survey-likert","40","445143","0.0-5.0-0.29","43","1","2022-11-29 21:25:07","2df368f4e41f066fd1c82c297b4a1108","177.231.24.50","Mozilla/5.0 (Windows NT 10.0; Win64; x64) AppleWebKit/537.36 (KHTML, like Gecko) Chrome/107.0.0.0 Safari/537.36","WebKit","Chrome","107.0.0.0","Windows","10.0","[0]","","57","4",""
"6304","You drop a bowling ball on a piece of cake <br> T&uacute tiras una bola de boliche a un trozo de pastel","{""Q0"":4}","trial","44462","survey-likert","41","451453","0.0-5.0-0.30","43","1","2022-11-29 21:25:07","2df368f4e41f066fd1c82c297b4a1108","177.231.24.50","Mozilla/5.0 (Windows NT 10.0; Win64; x64) AppleWebKit/537.36 (KHTML, like Gecko) Chrome/107.0.0.0 Safari/537.36","WebKit","Chrome","107.0.0.0","Windows","10.0","[0]","","2","4",""
"4257","You drop a bowling ball on a rice cake <br> T&uacute tiras una bola de boliche a una tortita de arroz","{""Q0"":4}","trial","44462","survey-likert","42","455715","0.0-5.0-0.31","43","1","2022-11-29 21:25:07","2df368f4e41f066fd1c82c297b4a1108","177.231.24.50","Mozilla/5.0 (Windows NT 10.0; Win64; x64) AppleWebKit/537.36 (KHTML, like Gecko) Chrome/107.0.0.0 Safari/537.36","WebKit","Chrome","107.0.0.0","Windows","10.0","[0]","","18","4",""
"10615","You drop a watch on the laptop <br> T&uacute tiras un reloj al port&aacutetil","{""Q0"":3}","trial","44462","survey-likert","43","466336","0.0-5.0-0.32","43","1","2022-11-29 21:25:07","2df368f4e41f066fd1c82c297b4a1108","177.231.24.50","Mozilla/5.0 (Windows NT 10.0; Win64; x64) AppleWebKit/537.36 (KHTML, like Gecko) Chrome/107.0.0.0 Safari/537.36","WebKit","Chrome","107.0.0.0","Windows","10.0","[0]","","37","3",""
"6099","You drop a bowling ball on a piece of sushi <br> T&uacute tiras una bola de boliche a un pedazo de sushi","{""Q0"":4}","trial","44462","survey-likert","44","472441","0.0-5.0-0.33","43","1","2022-11-29 21:25:07","2df368f4e41f066fd1c82c297b4a1108","177.231.24.50","Mozilla/5.0 (Windows NT 10.0; Win64; x64) AppleWebKit/537.36 (KHTML, like Gecko) Chrome/107.0.0.0 Safari/537.36","WebKit","Chrome","107.0.0.0","Windows","10.0","[0]","","21","4",""
"4189","You drop a bowling ball on an iPAD <br> T&uacute tiras una bola de boliche a un iPad","{""Q0"":4}","trial","44462","survey-likert","45","476635","0.0-5.0-0.34","43","1","2022-11-29 21:25:07","2df368f4e41f066fd1c82c297b4a1108","177.231.24.50","Mozilla/5.0 (Windows NT 10.0; Win64; x64) AppleWebKit/537.36 (KHTML, like Gecko) Chrome/107.0.0.0 Safari/537.36","WebKit","Chrome","107.0.0.0","Windows","10.0","[0]","","12","4",""
"5116","You see how a thief is stealing a wallet <br> T&uacute ves como un ladr&oacuten est&aacute robando una billetera","{""Q0"":4}","trial","44462","survey-likert","46","481757","0.0-5.0-0.35","43","1","2022-11-29 21:25:07","2df368f4e41f066fd1c82c297b4a1108","177.231.24.50","Mozilla/5.0 (Windows NT 10.0; Win64; x64) AppleWebKit/537.36 (KHTML, like Gecko) Chrome/107.0.0.0 Safari/537.36","WebKit","Chrome","107.0.0.0","Windows","10.0","[0]","","68","4",""
"7980","You drop a bowling ball on an iPhone <br> T&uacute tiras una bola de boliche a un iPhone","{""Q0"":4}","trial","44462","survey-likert","47","489743","0.0-5.0-0.36","43","1","2022-11-29 21:25:07","2df368f4e41f066fd1c82c297b4a1108","177.231.24.50","Mozilla/5.0 (Windows NT 10.0; Win64; x64) AppleWebKit/537.36 (KHTML, like Gecko) Chrome/107.0.0.0 Safari/537.36","WebKit","Chrome","107.0.0.0","Windows","10.0","[0]","","13","4",""
"11068","You drop a pencil on the shoe <br> T&uacute tiras un l&aacutepiz al zapato","{""Q0"":2}","trial","44462","survey-likert","48","500817","0.0-5.0-0.37","43","1","2022-11-29 21:25:07","2df368f4e41f066fd1c82c297b4a1108","177.231.24.50","Mozilla/5.0 (Windows NT 10.0; Win64; x64) AppleWebKit/537.36 (KHTML, like Gecko) Chrome/107.0.0.0 Safari/537.36","WebKit","Chrome","107.0.0.0","Windows","10.0","[0]","","40","2",""
"34696","You see how a donkey is drinking water <br> T&uacute ves como un burro est&aacute bebiendo agua","{""Q0"":4}","trial","44462","survey-likert","49","535521","0.0-5.0-0.38","43","1","2022-11-29 21:25:07","2df368f4e41f066fd1c82c297b4a1108","177.231.24.50","Mozilla/5.0 (Windows NT 10.0; Win64; x64) AppleWebKit/537.36 (KHTML, like Gecko) Chrome/107.0.0.0 Safari/537.36","WebKit","Chrome","107.0.0.0","Windows","10.0","[0]","","45","4",""
"20638","You drop a bowling ball on a strawberry <br> T&uacute tiras una bola de boliche a una fresa","{""Q0"":4}","trial","44462","survey-likert","50","556164","0.0-5.0-0.39","43","1","2022-11-29 21:25:07","2df368f4e41f066fd1c82c297b4a1108","177.231.24.50","Mozilla/5.0 (Windows NT 10.0; Win64; x64) AppleWebKit/537.36 (KHTML, like Gecko) Chrome/107.0.0.0 Safari/537.36","WebKit","Chrome","107.0.0.0","Windows","10.0","[0]","","20","4",""
"5768","You drop a cushion on the magazine <br> T&uacute tiras un coj&iacuten a la revista","{""Q0"":4}","trial","44462","survey-likert","51","561939","0.0-5.0-0.40","43","1","2022-11-29 21:25:07","2df368f4e41f066fd1c82c297b4a1108","177.231.24.50","Mozilla/5.0 (Windows NT 10.0; Win64; x64) AppleWebKit/537.36 (KHTML, like Gecko) Chrome/107.0.0.0 Safari/537.36","WebKit","Chrome","107.0.0.0","Windows","10.0","[0]","","38","4",""
"4678","You drop a cabbage on the table <br> T&uacute tiras una col a la mesa","{""Q0"":4}","trial","44462","survey-likert","52","566623","0.0-5.0-0.41","43","1","2022-11-29 21:25:07","2df368f4e41f066fd1c82c297b4a1108","177.231.24.50","Mozilla/5.0 (Windows NT 10.0; Win64; x64) AppleWebKit/537.36 (KHTML, like Gecko) Chrome/107.0.0.0 Safari/537.36","WebKit","Chrome","107.0.0.0","Windows","10.0","[0]","","35","4",""
"6496","You see how a police officer is talking on the phone <br> T&uacute ves como un polic&iacutea est&aacute hablando por el tel&eacutefono","{""Q0"":4}","trial","44462","survey-likert","53","573125","0.0-5.0-0.42","43","1","2022-11-29 21:25:07","2df368f4e41f066fd1c82c297b4a1108","177.231.24.50","Mozilla/5.0 (Windows NT 10.0; Win64; x64) AppleWebKit/537.36 (KHTML, like Gecko) Chrome/107.0.0.0 Safari/537.36","WebKit","Chrome","107.0.0.0","Windows","10.0","[0]","","62","4",""
"4177","You drop a bowling ball on a blackberry <br> T&uacute tiras una bola de boliche a una mora","{""Q0"":4}","trial","44462","survey-likert","54","577310","0.0-5.0-0.43","43","1","2022-11-29 21:25:07","2df368f4e41f066fd1c82c297b4a1108","177.231.24.50","Mozilla/5.0 (Windows NT 10.0; Win64; x64) AppleWebKit/537.36 (KHTML, like Gecko) Chrome/107.0.0.0 Safari/537.36","WebKit","Chrome","107.0.0.0","Windows","10.0","[0]","","8","4",""
"4119","You drop a thermometer on the box <br> T&uacute tiras un term&oacutemetro a la caja","{""Q0"":4}","trial","44462","survey-likert","55","581436","0.0-5.0-0.44","43","1","2022-11-29 21:25:07","2df368f4e41f066fd1c82c297b4a1108","177.231.24.50","Mozilla/5.0 (Windows NT 10.0; Win64; x64) AppleWebKit/537.36 (KHTML, like Gecko) Chrome/107.0.0.0 Safari/537.36","WebKit","Chrome","107.0.0.0","Windows","10.0","[0]","","70","4",""
"8573","You drop a bowling ball on an empty can of beer <br> T&uacute tiras una bola de boliche a una lata de cerveza vac&iacutea","{""Q0"":4}","trial","44462","survey-likert","56","590015","0.0-5.0-0.45","43","1","2022-11-29 21:25:07","2df368f4e41f066fd1c82c297b4a1108","177.231.24.50","Mozilla/5.0 (Windows NT 10.0; Win64; x64) AppleWebKit/537.36 (KHTML, like Gecko) Chrome/107.0.0.0 Safari/537.36","WebKit","Chrome","107.0.0.0","Windows","10.0","[0]","","3","4",""
"5140","You see how a teenage girl is playing the piano <br> T&uacute ves como una ni&ntildea adolescente est&aacute tocando el piano","{""Q0"":4}","trial","44462","survey-likert","57","595160","0.0-5.0-0.46","43","1","2022-11-29 21:25:07","2df368f4e41f066fd1c82c297b4a1108","177.231.24.50","Mozilla/5.0 (Windows NT 10.0; Win64; x64) AppleWebKit/537.36 (KHTML, like Gecko) Chrome/107.0.0.0 Safari/537.36","WebKit","Chrome","107.0.0.0","Windows","10.0","[0]","","54","4",""
"21761","You see how an owl is sitting on the branch <br> T&uacute ves como un b&uacuteho est&aacute reposando en una rama","{""Q0"":2}","trial","44462","survey-likert","58","616926","0.0-5.0-0.47","43","1","2022-11-29 21:25:07","2df368f4e41f066fd1c82c297b4a1108","177.231.24.50","Mozilla/5.0 (Windows NT 10.0; Win64; x64) AppleWebKit/537.36 (KHTML, like Gecko) Chrome/107.0.0.0 Safari/537.36","WebKit","Chrome","107.0.0.0","Windows","10.0","[0]","","69","2",""
"5018","You see how a man is playing with a cat <br> T&uacute ves como un hombre est&aacute jugando con un gato","{""Q0"":4}","trial","44462","survey-likert","59","621951","0.0-5.0-0.48","43","1","2022-11-29 21:25:07","2df368f4e41f066fd1c82c297b4a1108","177.231.24.50","Mozilla/5.0 (Windows NT 10.0; Win64; x64) AppleWebKit/537.36 (KHTML, like Gecko) Chrome/107.0.0.0 Safari/537.36","WebKit","Chrome","107.0.0.0","Windows","10.0","[0]","","67","4",""
"5618","You drop a bowling ball on a mirror <br> T&uacute tiras una bola de boliche a un espejo","{""Q0"":4}","trial","44462","survey-likert","60","627574","0.0-5.0-0.49","43","1","2022-11-29 21:25:07","2df368f4e41f066fd1c82c297b4a1108","177.231.24.50","Mozilla/5.0 (Windows NT 10.0; Win64; x64) AppleWebKit/537.36 (KHTML, like Gecko) Chrome/107.0.0.0 Safari/537.36","WebKit","Chrome","107.0.0.0","Windows","10.0","[0]","","15","4",""
"7932","You drop a bowling ball on a chocolate ice-cream <br> T&uacute tiras una bola de boliche a un helado de chocolate","{""Q0"":4}","trial","44462","survey-likert","61","635511","0.0-5.0-0.50","43","1","2022-11-29 21:25:07","2df368f4e41f066fd1c82c297b4a1108","177.231.24.50","Mozilla/5.0 (Windows NT 10.0; Win64; x64) AppleWebKit/537.36 (KHTML, like Gecko) Chrome/107.0.0.0 Safari/537.36","WebKit","Chrome","107.0.0.0","Windows","10.0","[0]","","11","4",""
"5432","You see how a woman is taking money out of a wallet <br> T&uacute ves como una mujer est&aacute sacando dinero de su billetera","{""Q0"":4}","trial","44462","survey-likert","62","640948","0.0-5.0-0.51","43","1","2022-11-29 21:25:07","2df368f4e41f066fd1c82c297b4a1108","177.231.24.50","Mozilla/5.0 (Windows NT 10.0; Win64; x64) AppleWebKit/537.36 (KHTML, like Gecko) Chrome/107.0.0.0 Safari/537.36","WebKit","Chrome","107.0.0.0","Windows","10.0","[0]","","44","4",""
"5615","You drop a bowling ball on a tile <br> T&uacute tiras una bola de boliche a una baldosa","{""Q0"":4}","trial","44462","survey-likert","63","646570","0.0-5.0-0.52","43","1","2022-11-29 21:25:07","2df368f4e41f066fd1c82c297b4a1108","177.231.24.50","Mozilla/5.0 (Windows NT 10.0; Win64; x64) AppleWebKit/537.36 (KHTML, like Gecko) Chrome/107.0.0.0 Safari/537.36","WebKit","Chrome","107.0.0.0","Windows","10.0","[0]","","22","4",""
"20453","You drop a bowling ball on glasses <br> T&uacute tiras una bola de boliche a unas gafas","{""Q0"":4}","trial","44462","survey-likert","64","667031","0.0-5.0-0.53","43","1","2022-11-29 21:25:07","2df368f4e41f066fd1c82c297b4a1108","177.231.24.50","Mozilla/5.0 (Windows NT 10.0; Win64; x64) AppleWebKit/537.36 (KHTML, like Gecko) Chrome/107.0.0.0 Safari/537.36","WebKit","Chrome","107.0.0.0","Windows","10.0","[0]","","9","4",""
"4305","You drop a towel on the TV <br> T&uacute tiras una toalla a la televisi&oacuten","{""Q0"":4}","trial","44462","survey-likert","65","671343","0.0-5.0-0.54","43","1","2022-11-29 21:25:07","2df368f4e41f066fd1c82c297b4a1108","177.231.24.50","Mozilla/5.0 (Windows NT 10.0; Win64; x64) AppleWebKit/537.36 (KHTML, like Gecko) Chrome/107.0.0.0 Safari/537.36","WebKit","Chrome","107.0.0.0","Windows","10.0","[0]","","53","4",""
"6950","You see how an elephant is eating a watermelon <br> T&uacute ves como un elefante est&aacute comiendo una sand&iacutea","{""Q0"":4}","trial","44462","survey-likert","66","678299","0.0-5.0-0.55","43","1","2022-11-29 21:25:07","2df368f4e41f066fd1c82c297b4a1108","177.231.24.50","Mozilla/5.0 (Windows NT 10.0; Win64; x64) AppleWebKit/537.36 (KHTML, like Gecko) Chrome/107.0.0.0 Safari/537.36","WebKit","Chrome","107.0.0.0","Windows","10.0","[0]","","31","4",""
"5624","You see how a parrot is eating an apple <br> T&uacute ves como un loro est&aacute comiendo una manzana","{""Q0"":3}","trial","44462","survey-likert","67","683930","0.0-5.0-0.56","43","1","2022-11-29 21:25:07","2df368f4e41f066fd1c82c297b4a1108","177.231.24.50","Mozilla/5.0 (Windows NT 10.0; Win64; x64) AppleWebKit/537.36 (KHTML, like Gecko) Chrome/107.0.0.0 Safari/537.36","WebKit","Chrome","107.0.0.0","Windows","10.0","[0]","","58","3",""
"7642","You see how a student is writing on a board <br> T&uacute ves como un estudiante est&aacute escribiendo en la pizarra","{""Q0"":4}","trial","44462","survey-likert","68","691579","0.0-5.0-0.57","43","1","2022-11-29 21:25:07","2df368f4e41f066fd1c82c297b4a1108","177.231.24.50","Mozilla/5.0 (Windows NT 10.0; Win64; x64) AppleWebKit/537.36 (KHTML, like Gecko) Chrome/107.0.0.0 Safari/537.36","WebKit","Chrome","107.0.0.0","Windows","10.0","[0]","","50","4",""
"6083","You see how a kitten is playing in the sandbox <br> T&uacute ves como un gatito est&aacute jugando en la caja de arena","{""Q0"":4}","trial","44462","survey-likert","69","697668","0.0-5.0-0.58","43","1","2022-11-29 21:25:07","2df368f4e41f066fd1c82c297b4a1108","177.231.24.50","Mozilla/5.0 (Windows NT 10.0; Win64; x64) AppleWebKit/537.36 (KHTML, like Gecko) Chrome/107.0.0.0 Safari/537.36","WebKit","Chrome","107.0.0.0","Windows","10.0","[0]","","52","4",""
"14443","You drop a bowling ball on a light bulb <br> T&uacute tiras una bola de boliche a una bombilla","{""Q0"":4}","trial","44462","survey-likert","70","712117","0.0-5.0-0.59","43","1","2022-11-29 21:25:07","2df368f4e41f066fd1c82c297b4a1108","177.231.24.50","Mozilla/5.0 (Windows NT 10.0; Win64; x64) AppleWebKit/537.36 (KHTML, like Gecko) Chrome/107.0.0.0 Safari/537.36","WebKit","Chrome","107.0.0.0","Windows","10.0","[0]","","14","4",""
"7065","You see how a postman is driving a car <br> T&uacute ves como un cartero est&aacute conduciendo un coche","{""Q0"":4}","trial","44462","survey-likert","71","719189","0.0-5.0-0.60","43","1","2022-11-29 21:25:07","2df368f4e41f066fd1c82c297b4a1108","177.231.24.50","Mozilla/5.0 (Windows NT 10.0; Win64; x64) AppleWebKit/537.36 (KHTML, like Gecko) Chrome/107.0.0.0 Safari/537.36","WebKit","Chrome","107.0.0.0","Windows","10.0","[0]","","32","4",""
"5823","You drop a bowling ball on an egg flan <br> T&uacute tiras una bola de boliche a un flan","{""Q0"":4}","trial","44462","survey-likert","72","725018","0.0-5.0-0.61","43","1","2022-11-29 21:25:07","2df368f4e41f066fd1c82c297b4a1108","177.231.24.50","Mozilla/5.0 (Windows NT 10.0; Win64; x64) AppleWebKit/537.36 (KHTML, like Gecko) Chrome/107.0.0.0 Safari/537.36","WebKit","Chrome","107.0.0.0","Windows","10.0","[0]","","7","4",""
"30790","You drop a bowling ball on a tomato <br> T&uacute tiras una bola de boliche a un tomate","{""Q0"":3}","trial","44462","survey-likert","73","755815","0.0-5.0-0.62","43","1","2022-11-29 21:25:07","2df368f4e41f066fd1c82c297b4a1108","177.231.24.50","Mozilla/5.0 (Windows NT 10.0; Win64; x64) AppleWebKit/537.36 (KHTML, like Gecko) Chrome/107.0.0.0 Safari/537.36","WebKit","Chrome","107.0.0.0","Windows","10.0","[0]","","23","3",""
"6034","You drop a bowling ball on a chocolate muffin <br> T&uacute tiras una bola de boliche a una magdalena de chocolate","{""Q0"":4}","trial","44462","survey-likert","74","761857","0.0-5.0-0.63","43","1","2022-11-29 21:25:07","2df368f4e41f066fd1c82c297b4a1108","177.231.24.50","Mozilla/5.0 (Windows NT 10.0; Win64; x64) AppleWebKit/537.36 (KHTML, like Gecko) Chrome/107.0.0.0 Safari/537.36","WebKit","Chrome","107.0.0.0","Windows","10.0","[0]","","16","4",""
"6017","You drop a bowling ball on a porcelain figure <br> T&uacute tiras una bola de boliche a una figura de porcelana","{""Q0"":4}","trial","44462","survey-likert","75","767879","0.0-5.0-0.64","43","1","2022-11-29 21:25:07","2df368f4e41f066fd1c82c297b4a1108","177.231.24.50","Mozilla/5.0 (Windows NT 10.0; Win64; x64) AppleWebKit/537.36 (KHTML, like Gecko) Chrome/107.0.0.0 Safari/537.36","WebKit","Chrome","107.0.0.0","Windows","10.0","[0]","","1","4",""
"7748","You drop a toothbrush on the sponge <br> T&uacute tiras un cepillo de dientes en la esponja","{""Q0"":4}","trial","44462","survey-likert","76","775633","0.0-5.0-0.65","43","1","2022-11-29 21:25:07","2df368f4e41f066fd1c82c297b4a1108","177.231.24.50","Mozilla/5.0 (Windows NT 10.0; Win64; x64) AppleWebKit/537.36 (KHTML, like Gecko) Chrome/107.0.0.0 Safari/537.36","WebKit","Chrome","107.0.0.0","Windows","10.0","[0]","","25","4",""
"9722","You drop a bowling ball on a hat <br> T&uacute tiras una bola de boliche a una gorra","{""Q0"":3}","trial","44462","survey-likert","77","785360","0.0-5.0-0.66","43","1","2022-11-29 21:25:07","2df368f4e41f066fd1c82c297b4a1108","177.231.24.50","Mozilla/5.0 (Windows NT 10.0; Win64; x64) AppleWebKit/537.36 (KHTML, like Gecko) Chrome/107.0.0.0 Safari/537.36","WebKit","Chrome","107.0.0.0","Windows","10.0","[0]","","10","3",""
"6142","You see how an astronaut is putting on a space suit <br> T&uacute ves como un astronauta se est&aacute poniendo su traje espacial","{""Q0"":4}","trial","44462","survey-likert","78","791508","0.0-5.0-0.67","43","1","2022-11-29 21:25:07","2df368f4e41f066fd1c82c297b4a1108","177.231.24.50","Mozilla/5.0 (Windows NT 10.0; Win64; x64) AppleWebKit/537.36 (KHTML, like Gecko) Chrome/107.0.0.0 Safari/537.36","WebKit","Chrome","107.0.0.0","Windows","10.0","[0]","","33","4",""
"8318","You see how a zebra is playing with a horse <br> T&uacute ves como una cebra est&aacute jugando con un caballo","{""Q0"":4}","trial","44462","survey-likert","79","799834","0.0-5.0-0.68","43","1","2022-11-29 21:25:07","2df368f4e41f066fd1c82c297b4a1108","177.231.24.50","Mozilla/5.0 (Windows NT 10.0; Win64; x64) AppleWebKit/537.36 (KHTML, like Gecko) Chrome/107.0.0.0 Safari/537.36","WebKit","Chrome","107.0.0.0","Windows","10.0","[0]","","66","4",""
"6762","You drop a bowling ball on an egg <br> T&uacute tiras una bola de boliche a un huevo","{""Q0"":4}","trial","44462","survey-likert","80","806602","0.0-5.0-0.69","43","1","2022-11-29 21:25:07","2df368f4e41f066fd1c82c297b4a1108","177.231.24.50","Mozilla/5.0 (Windows NT 10.0; Win64; x64) AppleWebKit/537.36 (KHTML, like Gecko) Chrome/107.0.0.0 Safari/537.36","WebKit","Chrome","107.0.0.0","Windows","10.0","[0]","","6","4",""
"5373","You see how a dentist is drinking a can of cola <br> T&uacute ves como un dentista est&aacute bebiendo una lata de cola","{""Q0"":4}","trial","44462","survey-likert","81","811983","0.0-5.0-0.70","43","1","2022-11-29 21:25:07","2df368f4e41f066fd1c82c297b4a1108","177.231.24.50","Mozilla/5.0 (Windows NT 10.0; Win64; x64) AppleWebKit/537.36 (KHTML, like Gecko) Chrome/107.0.0.0 Safari/537.36","WebKit","Chrome","107.0.0.0","Windows","10.0","[0]","","47","4",""
"7811","You see how an actress is taking a microphone <br> T&uacute ves como una actriz est&aacute agarrando el micr&oacutefono","{""Q0"":3}","trial","44462","survey-likert","82","819801","0.0-5.0-0.71","43","1","2022-11-29 21:25:07","2df368f4e41f066fd1c82c297b4a1108","177.231.24.50","Mozilla/5.0 (Windows NT 10.0; Win64; x64) AppleWebKit/537.36 (KHTML, like Gecko) Chrome/107.0.0.0 Safari/537.36","WebKit","Chrome","107.0.0.0","Windows","10.0","[0]","","51","3",""
"8654","
    <p style=""font-size:20px;""> You have completed the experiment portion! </p>
    <p style=""font-size:20px;""> Before you are done, we would like you to answer some basic demographic questions. </p>
    <p style=""font-size:20px;""> Note that your answers to these questions will not affect your compensation/credit. </p>
    <p style=""font-size:20px;""> Click the button below to continue.</p>
    ","0","demo","44462","html-button-response","83","828466","0.0-6.0","43","1","2022-11-29 21:25:07","2df368f4e41f066fd1c82c297b4a1108","177.231.24.50","Mozilla/5.0 (Windows NT 10.0; Win64; x64) AppleWebKit/537.36 (KHTML, like Gecko) Chrome/107.0.0.0 Safari/537.36","WebKit","Chrome","107.0.0.0","Windows","10.0","","","","",""
"18031","","{""Age"":""46"",""Gender"":""male"",""Education"":""20""}","demo","44462","survey-text","84","846511","0.0-7.0-0.0","43","1","2022-11-29 21:25:07","2df368f4e41f066fd1c82c297b4a1108","177.231.24.50","Mozilla/5.0 (Windows NT 10.0; Win64; x64) AppleWebKit/537.36 (KHTML, like Gecko) Chrome/107.0.0.0 Safari/537.36","WebKit","Chrome","107.0.0.0","Windows","10.0","","","","",""
"12327","","{""Race"":[""More than once race""]}","demo","44462","survey-multi-select","85","858850","0.0-7.0-1.0","43","1","2022-11-29 21:25:07","2df368f4e41f066fd1c82c297b4a1108","177.231.24.50","Mozilla/5.0 (Windows NT 10.0; Win64; x64) AppleWebKit/537.36 (KHTML, like Gecko) Chrome/107.0.0.0 Safari/537.36","WebKit","Chrome","107.0.0.0","Windows","10.0","[0]","","","",""
"12909","","{""Latino"":""Yes"",""Alert"":""Afternoon""}","demo","44462","survey-multi-choice","86","871769","0.0-7.0-2.0","43","1","2022-11-29 21:25:07","2df368f4e41f066fd1c82c297b4a1108","177.231.24.50","Mozilla/5.0 (Windows NT 10.0; Win64; x64) AppleWebKit/537.36 (KHTML, like Gecko) Chrome/107.0.0.0 Safari/537.36","WebKit","Chrome","107.0.0.0","Windows","10.0","[0,1]","","","",""
"16829","","{""Q0"":""nothing else""}","demo","44462","survey-text","87","888607","0.0-7.0-3.0","43","1","2022-11-29 21:25:07","2df368f4e41f066fd1c82c297b4a1108","177.231.24.50","Mozilla/5.0 (Windows NT 10.0; Win64; x64) AppleWebKit/537.36 (KHTML, like Gecko) Chrome/107.0.0.0 Safari/537.36","WebKit","Chrome","107.0.0.0","Windows","10.0","","","","",""
"20481","<p>Thank you for participating! </p><strong>Your completion code is: CXEJB7NH. Please copy-paste this code and submit it on Prolific.</strong><p>Click <a href=""https://drive.google.com/file/d/1c70cdHFlc0AaR6RujLWLJwWkv1RbHQJY/view?usp=sharing"" target=""_blank"" rel=""noopener noreferrer"">here</a> to access the debriefing form and know more about our research. <p> Please click the button below to finish the experiment and save your data.</p> <p> IMPORTANT: Please <strong>do not leave this page </strong> without clicking the button below.</p> <p> You may close the tab/window after you click the button below.","0","","","html-button-response","88","909094","0.0-8.0","43","1","2022-11-29 21:25:07","2df368f4e41f066fd1c82c297b4a1108","177.231.24.50","Mozilla/5.0 (Windows NT 10.0; Win64; x64) AppleWebKit/537.36 (KHTML, like Gecko) Chrome/107.0.0.0 Safari/537.36","WebKit","Chrome","107.0.0.0","Windows","10.0","","","","",""
