"rt","stimulus","response","typeoftrial","subject","trial_type","trial_index","time_elapsed","internal_node_id","run_id","condition","recorded_at","source_code_version","ip","user_agent","device","browser","browser_version","platform","platform_version","question_order","practice_rating","sentence_num","rating","Experiment"
"68273","
        <p style=""font-size:20px;""> Welcome! Thank you for your interest in our study. </p>
        <p style=""font-size:20px;""> This study is being conducted by researchers at Bowdoin College.</p>
        <p style=""font-size:20px;""> In this experiment, you will be asked to rate the accuracy of English and Spanish translations.</p>
        <p style=""font-size:20px;""> The entire experiment should not last more than 20 minutes. You will be paid $3 USD for your participation. </p>
        <p style=""font-size:20px;""> Please click <a href = ""https://drive.google.com/file/d/1L92a02eEKCpaAEipmqDcBCDR7rsarqFE/view?usp=sharing"" target = ""_blank"">here</a> to read the full consent form. </p>
        <p style=""font-size:20px;""> If you agree to participate, please click the button below to continue to experiment instructions.</p>
        ","0","consent","53749","html-button-response","0","68274","0.0-0.0","16","1","2022-11-29 21:24:45","2df368f4e41f066fd1c82c297b4a1108","187.188.242.142","Mozilla/5.0 (Windows NT 10.0; Win64; x64; rv:107.0) Gecko/20100101 Firefox/107.0","","Firefox","107.0","Windows","10.0","","","","",""
"6741","","{""ID"":""60ff5cd9725a43dbd1e92606""}","ID","53749","survey-text","1","75018","0.0-1.0","16","1","2022-11-29 21:24:45","2df368f4e41f066fd1c82c297b4a1108","187.188.242.142","Mozilla/5.0 (Windows NT 10.0; Win64; x64; rv:107.0) Gecko/20100101 Firefox/107.0","","Firefox","107.0","Windows","10.0","","","","",""
"5980","
        <p style=""font-size:20px;""> You are about to begin the practice test. </p>
        <p style=""font-size:20px;""> On each trial, you will see a sentence in English and its corresponding Spanish translation. </p>
        <p style=""font-size:20px;""> You will rate the accuracy of the translation on a scale from ""Not at all accurate"" to ""Very accurate."" </p>
        <p style=""font-size:20px;""> If you rate the translation as ""Somewhat innaccurate"" or ""Not at all accurate,"" you will be asked to provide your own translation or a reason why the translation is inaccurate. </p>
        <p style=""font-size:20px;""> Click the button below to continue to the practice session.</p>","0","instructions","53749","html-button-response","2","81001","0.0-2.0","16","1","2022-11-29 21:24:45","2df368f4e41f066fd1c82c297b4a1108","187.188.242.142","Mozilla/5.0 (Windows NT 10.0; Win64; x64; rv:107.0) Gecko/20100101 Firefox/107.0","","Firefox","107.0","Windows","10.0","","","","",""
"14319","You drop a rock on a phone <br> T&uacute tiras una piedra a un tel&eacutefono","{""Q0"":2}","practice","53749","survey-likert","3","95321","0.0-3.0-0.0","16","1","2022-11-29 21:24:45","2df368f4e41f066fd1c82c297b4a1108","187.188.242.142","Mozilla/5.0 (Windows NT 10.0; Win64; x64; rv:107.0) Gecko/20100101 Firefox/107.0","","Firefox","107.0","Windows","10.0","[0]","2","","",""
"10207","You see how an artist is running <br> T&uacute ves como un artista est&aacute corriendo","{""Q0"":3}","practice","53749","survey-likert","4","105529","0.0-3.0-0.1","16","1","2022-11-29 21:24:45","2df368f4e41f066fd1c82c297b4a1108","187.188.242.142","Mozilla/5.0 (Windows NT 10.0; Win64; x64; rv:107.0) Gecko/20100101 Firefox/107.0","","Firefox","107.0","Windows","10.0","[0]","3","","",""
"7350","You see how a tiger is playing with a goose <br> T&uacute ves como un le&oacuten come una pizza","{""Q0"":0}","practice","53749","survey-likert","5","112881","0.0-3.0-0.2","16","1","2022-11-29 21:24:45","2df368f4e41f066fd1c82c297b4a1108","187.188.242.142","Mozilla/5.0 (Windows NT 10.0; Win64; x64; rv:107.0) Gecko/20100101 Firefox/107.0","","Firefox","107.0","Windows","10.0","[0]","0","","",""
"25616","You see how a tiger is playing with a goose <br> T&uacute ves como un le&oacuten come una pizza","{""Q0"":""Ves el tigre juugar con el ganzo""}","practice_low_rate","53749","survey-text","6","138499","0.0-3.0-1.2-0.2","16","1","2022-11-29 21:24:45","2df368f4e41f066fd1c82c297b4a1108","187.188.242.142","Mozilla/5.0 (Windows NT 10.0; Win64; x64; rv:107.0) Gecko/20100101 Firefox/107.0","","Firefox","107.0","Windows","10.0","","","5","",""
"21487","You drop a bowling ball on a mircrowave <br> T&uacute tiras una bola de boliche a un horno","{""Q0"":1}","practice","53749","survey-likert","7","159989","0.0-3.0-0.3","16","1","2022-11-29 21:24:45","2df368f4e41f066fd1c82c297b4a1108","187.188.242.142","Mozilla/5.0 (Windows NT 10.0; Win64; x64; rv:107.0) Gecko/20100101 Firefox/107.0","","Firefox","107.0","Windows","10.0","[0]","1","","",""
"22600","You drop a bowling ball on a mircrowave <br> T&uacute tiras una bola de boliche a un horno","{""Q0"":""dejaste caer una bola de bolinche a un microondas""}","practice_low_rate","53749","survey-text","8","182591","0.0-3.0-1.3-0.3","16","1","2022-11-29 21:24:45","2df368f4e41f066fd1c82c297b4a1108","187.188.242.142","Mozilla/5.0 (Windows NT 10.0; Win64; x64; rv:107.0) Gecko/20100101 Firefox/107.0","","Firefox","107.0","Windows","10.0","","","6","",""
"9311","You see how a duck is playing with a pumpkin <br> T&uacute ves como un pato est&aacute jugando con una calabaza","{""Q0"":4}","practice","53749","survey-likert","9","191903","0.0-3.0-0.4","16","1","2022-11-29 21:24:45","2df368f4e41f066fd1c82c297b4a1108","187.188.242.142","Mozilla/5.0 (Windows NT 10.0; Win64; x64; rv:107.0) Gecko/20100101 Firefox/107.0","","Firefox","107.0","Windows","10.0","[0]","4","","",""
"19184","You see how a teacher is drawing a picture <br> T&uacute ves como un maestro pinta una foto","{""Q0"":1}","practice","53749","survey-likert","10","211090","0.0-3.0-0.5","16","1","2022-11-29 21:24:45","2df368f4e41f066fd1c82c297b4a1108","187.188.242.142","Mozilla/5.0 (Windows NT 10.0; Win64; x64; rv:107.0) Gecko/20100101 Firefox/107.0","","Firefox","107.0","Windows","10.0","[0]","1","","",""
"13102","You see how a teacher is drawing a picture <br> T&uacute ves como un maestro pinta una foto","{""Q0"":""Vees al profesor dibujar""}","practice_low_rate","53749","survey-text","11","224193","0.0-3.0-1.5-0.5","16","1","2022-11-29 21:24:45","2df368f4e41f066fd1c82c297b4a1108","187.188.242.142","Mozilla/5.0 (Windows NT 10.0; Win64; x64; rv:107.0) Gecko/20100101 Firefox/107.0","","Firefox","107.0","Windows","10.0","","","4","",""
"3003","<p style=""font-size:20px;"">You have now completed the practice session! </p>
        <p style=""font-size:20px;"">You will now move on to the main experiment. </p>
        <p style=""font-size:20px;"">Please click the button below to continue. </p>","0","movetoexp","53749","html-button-response","12","227197","0.0-4.0","16","1","2022-11-29 21:24:45","2df368f4e41f066fd1c82c297b4a1108","187.188.242.142","Mozilla/5.0 (Windows NT 10.0; Win64; x64; rv:107.0) Gecko/20100101 Firefox/107.0","","Firefox","107.0","Windows","10.0","","","","",""
"6105","You see how a giraffe is playing with a zebra <br> T&uacute ves como una jirafa est&aacute jugando con una cebra","{""Q0"":4}","trial","53749","survey-likert","13","233305","0.0-5.0-0.0","16","1","2022-11-29 21:24:45","2df368f4e41f066fd1c82c297b4a1108","187.188.242.142","Mozilla/5.0 (Windows NT 10.0; Win64; x64; rv:107.0) Gecko/20100101 Firefox/107.0","","Firefox","107.0","Windows","10.0","[0]","","65","4",""
"6498","You drop a bowling ball on a rice cake <br> T&uacute tiras una bola de boliche a una tortita de arroz","{""Q0"":4}","trial","53749","survey-likert","14","239804","0.0-5.0-0.1","16","1","2022-11-29 21:24:45","2df368f4e41f066fd1c82c297b4a1108","187.188.242.142","Mozilla/5.0 (Windows NT 10.0; Win64; x64; rv:107.0) Gecko/20100101 Firefox/107.0","","Firefox","107.0","Windows","10.0","[0]","","18","4",""
"7460","You drop a bowling ball on a tomato <br> T&uacute tiras una bola de boliche a un tomate","{""Q0"":4}","trial","53749","survey-likert","15","247266","0.0-5.0-0.2","16","1","2022-11-29 21:24:45","2df368f4e41f066fd1c82c297b4a1108","187.188.242.142","Mozilla/5.0 (Windows NT 10.0; Win64; x64; rv:107.0) Gecko/20100101 Firefox/107.0","","Firefox","107.0","Windows","10.0","[0]","","23","4",""
"4960","You see how a kitten is playing in the sandbox <br> T&uacute ves como un gatito est&aacute jugando en la caja de arena","{""Q0"":4}","trial","53749","survey-likert","16","252226","0.0-5.0-0.3","16","1","2022-11-29 21:24:45","2df368f4e41f066fd1c82c297b4a1108","187.188.242.142","Mozilla/5.0 (Windows NT 10.0; Win64; x64; rv:107.0) Gecko/20100101 Firefox/107.0","","Firefox","107.0","Windows","10.0","[0]","","52","4",""
"4535","You see how a cat is drinking water from a bowl <br> T&uacute ves como un gato est&aacute bebiendo agua de un cuenco","{""Q0"":4}","trial","53749","survey-likert","17","256763","0.0-5.0-0.4","16","1","2022-11-29 21:24:45","2df368f4e41f066fd1c82c297b4a1108","187.188.242.142","Mozilla/5.0 (Windows NT 10.0; Win64; x64; rv:107.0) Gecko/20100101 Firefox/107.0","","Firefox","107.0","Windows","10.0","[0]","","28","4",""
"5181","You drop a pencil on the shoe <br> T&uacute tiras un l&aacutepiz al zapato","{""Q0"":4}","trial","53749","survey-likert","18","261946","0.0-5.0-0.5","16","1","2022-11-29 21:24:45","2df368f4e41f066fd1c82c297b4a1108","187.188.242.142","Mozilla/5.0 (Windows NT 10.0; Win64; x64; rv:107.0) Gecko/20100101 Firefox/107.0","","Firefox","107.0","Windows","10.0","[0]","","40","4",""
"5990","You drop a bowling ball on a hat <br> T&uacute tiras una bola de boliche a una gorra","{""Q0"":3}","trial","53749","survey-likert","19","267937","0.0-5.0-0.6","16","1","2022-11-29 21:24:45","2df368f4e41f066fd1c82c297b4a1108","187.188.242.142","Mozilla/5.0 (Windows NT 10.0; Win64; x64; rv:107.0) Gecko/20100101 Firefox/107.0","","Firefox","107.0","Windows","10.0","[0]","","10","3",""
"5174","You see how an elephant is eating a watermelon <br> T&uacute ves como un elefante est&aacute comiendo una sand&iacutea","{""Q0"":3}","trial","53749","survey-likert","20","273113","0.0-5.0-0.7","16","1","2022-11-29 21:24:45","2df368f4e41f066fd1c82c297b4a1108","187.188.242.142","Mozilla/5.0 (Windows NT 10.0; Win64; x64; rv:107.0) Gecko/20100101 Firefox/107.0","","Firefox","107.0","Windows","10.0","[0]","","31","3",""
"8911","You drop a remote on the rug <br> T&uacute tiras un control remoto a la alfombra","{""Q0"":3}","trial","53749","survey-likert","21","282025","0.0-5.0-0.8","16","1","2022-11-29 21:24:45","2df368f4e41f066fd1c82c297b4a1108","187.188.242.142","Mozilla/5.0 (Windows NT 10.0; Win64; x64; rv:107.0) Gecko/20100101 Firefox/107.0","","Firefox","107.0","Windows","10.0","[0]","","39","3",""
"5375","You see how a horse is chewing hay <br> T&uacute ves como un caballo est&aacute masticando el heno","{""Q0"":3}","trial","53749","survey-likert","22","287401","0.0-5.0-0.9","16","1","2022-11-29 21:24:45","2df368f4e41f066fd1c82c297b4a1108","187.188.242.142","Mozilla/5.0 (Windows NT 10.0; Win64; x64; rv:107.0) Gecko/20100101 Firefox/107.0","","Firefox","107.0","Windows","10.0","[0]","","55","3",""
"6152","You drop a bowling ball on a chocolate muffin <br> T&uacute tiras una bola de boliche a una magdalena de chocolate","{""Q0"":3}","trial","53749","survey-likert","23","293554","0.0-5.0-0.10","16","1","2022-11-29 21:24:45","2df368f4e41f066fd1c82c297b4a1108","187.188.242.142","Mozilla/5.0 (Windows NT 10.0; Win64; x64; rv:107.0) Gecko/20100101 Firefox/107.0","","Firefox","107.0","Windows","10.0","[0]","","16","3",""
"5720","You drop a cabbage on the table <br> T&uacute tiras una col a la mesa","{""Q0"":3}","trial","53749","survey-likert","24","299274","0.0-5.0-0.11","16","1","2022-11-29 21:24:45","2df368f4e41f066fd1c82c297b4a1108","187.188.242.142","Mozilla/5.0 (Windows NT 10.0; Win64; x64; rv:107.0) Gecko/20100101 Firefox/107.0","","Firefox","107.0","Windows","10.0","[0]","","35","3",""
"8175","You see how an old man is hammering a nail <br> T&uacute ves como un hombre anciano est&aacute martillando un clavo","{""Q0"":3}","trial","53749","survey-likert","25","307449","0.0-5.0-0.12","16","1","2022-11-29 21:24:45","2df368f4e41f066fd1c82c297b4a1108","187.188.242.142","Mozilla/5.0 (Windows NT 10.0; Win64; x64; rv:107.0) Gecko/20100101 Firefox/107.0","","Firefox","107.0","Windows","10.0","[0]","","29","3",""
"5360","You drop a bowling ball on a strawberry <br> T&uacute tiras una bola de boliche a una fresa","{""Q0"":3}","trial","53749","survey-likert","26","312810","0.0-5.0-0.13","16","1","2022-11-29 21:24:45","2df368f4e41f066fd1c82c297b4a1108","187.188.242.142","Mozilla/5.0 (Windows NT 10.0; Win64; x64; rv:107.0) Gecko/20100101 Firefox/107.0","","Firefox","107.0","Windows","10.0","[0]","","20","3",""
"8679","You drop a bowling ball on an empty can of beer <br> T&uacute tiras una bola de boliche a una lata de cerveza vac&iacutea","{""Q0"":2}","trial","53749","survey-likert","27","321490","0.0-5.0-0.14","16","1","2022-11-29 21:24:45","2df368f4e41f066fd1c82c297b4a1108","187.188.242.142","Mozilla/5.0 (Windows NT 10.0; Win64; x64; rv:107.0) Gecko/20100101 Firefox/107.0","","Firefox","107.0","Windows","10.0","[0]","","3","2",""
"5151","You drop a keyboard on the bed <br> T&uacute tiras un teclado a la cama","{""Q0"":3}","trial","53749","survey-likert","28","326642","0.0-5.0-0.15","16","1","2022-11-29 21:24:45","2df368f4e41f066fd1c82c297b4a1108","187.188.242.142","Mozilla/5.0 (Windows NT 10.0; Win64; x64; rv:107.0) Gecko/20100101 Firefox/107.0","","Firefox","107.0","Windows","10.0","[0]","","36","3",""
"3014","You drop a bowling ball on a cracker <br> T&uacute tiras una bola de boliche a una galleta","{""Q0"":3}","trial","53749","survey-likert","29","329658","0.0-5.0-0.16","16","1","2022-11-29 21:24:45","2df368f4e41f066fd1c82c297b4a1108","187.188.242.142","Mozilla/5.0 (Windows NT 10.0; Win64; x64; rv:107.0) Gecko/20100101 Firefox/107.0","","Firefox","107.0","Windows","10.0","[0]","","4","3",""
"7422","You see how a man is boiling potatoes <br> T&uacute ves a un hombre est&aacute hirviendo papas","{""Q0"":1}","trial","53749","survey-likert","30","337081","0.0-5.0-0.17","16","1","2022-11-29 21:24:45","2df368f4e41f066fd1c82c297b4a1108","187.188.242.142","Mozilla/5.0 (Windows NT 10.0; Win64; x64; rv:107.0) Gecko/20100101 Firefox/107.0","","Firefox","107.0","Windows","10.0","[0]","","46","1",""
"11568","You see how a man is boiling potatoes <br> T&uacute ves a un hombre est&aacute hirviendo papas","{""Q0"":""vees a un hombre hervir papas""}","low_rate","53749","survey-text","31","348651","0.0-5.0-1.17-0.17","16","1","2022-11-29 21:24:45","2df368f4e41f066fd1c82c297b4a1108","187.188.242.142","Mozilla/5.0 (Windows NT 10.0; Win64; x64; rv:107.0) Gecko/20100101 Firefox/107.0","","Firefox","107.0","Windows","10.0","","","46","",""
"5656","You drop a bowling ball on a blackberry <br> T&uacute tiras una bola de boliche a una mora","{""Q0"":3}","trial","53749","survey-likert","32","354309","0.0-5.0-0.18","16","1","2022-11-29 21:24:45","2df368f4e41f066fd1c82c297b4a1108","187.188.242.142","Mozilla/5.0 (Windows NT 10.0; Win64; x64; rv:107.0) Gecko/20100101 Firefox/107.0","","Firefox","107.0","Windows","10.0","[0]","","8","3",""
"3881","You drop a bowling ball on a wine glass <br> T&uacute tiras una bola de boliche a una copa de vino","{""Q0"":3}","trial","53749","survey-likert","33","358193","0.0-5.0-0.19","16","1","2022-11-29 21:24:45","2df368f4e41f066fd1c82c297b4a1108","187.188.242.142","Mozilla/5.0 (Windows NT 10.0; Win64; x64; rv:107.0) Gecko/20100101 Firefox/107.0","","Firefox","107.0","Windows","10.0","[0]","","5","3",""
"5656","You see how a man is shaving his beard <br> T&uacute ves como un hombre se est&aacute afeitando la barba","{""Q0"":3}","trial","53749","survey-likert","34","363849","0.0-5.0-0.20","16","1","2022-11-29 21:24:45","2df368f4e41f066fd1c82c297b4a1108","187.188.242.142","Mozilla/5.0 (Windows NT 10.0; Win64; x64; rv:107.0) Gecko/20100101 Firefox/107.0","","Firefox","107.0","Windows","10.0","[0]","","43","3",""
"5159","You see how a boy is peeling a banana <br> T&uacute ves como un ni&ntildeo est&aacute pelando una banana","{""Q0"":4}","trial","53749","survey-likert","35","369010","0.0-5.0-0.21","16","1","2022-11-29 21:24:45","2df368f4e41f066fd1c82c297b4a1108","187.188.242.142","Mozilla/5.0 (Windows NT 10.0; Win64; x64; rv:107.0) Gecko/20100101 Firefox/107.0","","Firefox","107.0","Windows","10.0","[0]","","30","4",""
"3863","You drop a bowling ball on an iPhone <br> T&uacute tiras una bola de boliche a un iPhone","{""Q0"":4}","trial","53749","survey-likert","36","372873","0.0-5.0-0.22","16","1","2022-11-29 21:24:45","2df368f4e41f066fd1c82c297b4a1108","187.188.242.142","Mozilla/5.0 (Windows NT 10.0; Win64; x64; rv:107.0) Gecko/20100101 Firefox/107.0","","Firefox","107.0","Windows","10.0","[0]","","13","4",""
"3471","You see how a panda is resting on a tree <br> T&uacute ves como un panda est&aacute descansando en un &aacuterbol","{""Q0"":3}","trial","53749","survey-likert","37","376345","0.0-5.0-0.23","16","1","2022-11-29 21:24:45","2df368f4e41f066fd1c82c297b4a1108","187.188.242.142","Mozilla/5.0 (Windows NT 10.0; Win64; x64; rv:107.0) Gecko/20100101 Firefox/107.0","","Firefox","107.0","Windows","10.0","[0]","","57","3",""
"5038","You see how a butterfly is sitting on a flower <br> T&uacute ves como una mariposa est&aacute reposando en una flor","{""Q0"":4}","trial","53749","survey-likert","38","381386","0.0-5.0-0.24","16","1","2022-11-29 21:24:45","2df368f4e41f066fd1c82c297b4a1108","187.188.242.142","Mozilla/5.0 (Windows NT 10.0; Win64; x64; rv:107.0) Gecko/20100101 Firefox/107.0","","Firefox","107.0","Windows","10.0","[0]","","59","4",""
"9702","You see how a teenage girl is playing the piano <br> T&uacute ves como una ni&ntildea adolescente est&aacute tocando el piano","{""Q0"":2}","trial","53749","survey-likert","39","391089","0.0-5.0-0.25","16","1","2022-11-29 21:24:45","2df368f4e41f066fd1c82c297b4a1108","187.188.242.142","Mozilla/5.0 (Windows NT 10.0; Win64; x64; rv:107.0) Gecko/20100101 Firefox/107.0","","Firefox","107.0","Windows","10.0","[0]","","54","2",""
"6272","You see how a nurse is taking a syringe <br> T&uacute ves como una enfermera est&aacute agarrando una jeringuilla","{""Q0"":3}","trial","53749","survey-likert","40","397362","0.0-5.0-0.26","16","1","2022-11-29 21:24:45","2df368f4e41f066fd1c82c297b4a1108","187.188.242.142","Mozilla/5.0 (Windows NT 10.0; Win64; x64; rv:107.0) Gecko/20100101 Firefox/107.0","","Firefox","107.0","Windows","10.0","[0]","","48","3",""
"5063","You drop a bowling ball on a mirror <br> T&uacute tiras una bola de boliche a un espejo","{""Q0"":2}","trial","53749","survey-likert","41","402426","0.0-5.0-0.27","16","1","2022-11-29 21:24:45","2df368f4e41f066fd1c82c297b4a1108","187.188.242.142","Mozilla/5.0 (Windows NT 10.0; Win64; x64; rv:107.0) Gecko/20100101 Firefox/107.0","","Firefox","107.0","Windows","10.0","[0]","","15","2",""
"4334","You see how a mouse is eating cheese <br> T&uacute ves como el rat&oacuten est&aacute comiendo queso","{""Q0"":4}","trial","53749","survey-likert","42","406762","0.0-5.0-0.28","16","1","2022-11-29 21:24:45","2df368f4e41f066fd1c82c297b4a1108","187.188.242.142","Mozilla/5.0 (Windows NT 10.0; Win64; x64; rv:107.0) Gecko/20100101 Firefox/107.0","","Firefox","107.0","Windows","10.0","[0]","","56","4",""
"4639","You see how a president is writing in the notebook <br> T&uacute ves como un presidente est&aacute escribiendo en la libreta","{""Q0"":4}","trial","53749","survey-likert","43","411402","0.0-5.0-0.29","16","1","2022-11-29 21:24:45","2df368f4e41f066fd1c82c297b4a1108","187.188.242.142","Mozilla/5.0 (Windows NT 10.0; Win64; x64; rv:107.0) Gecko/20100101 Firefox/107.0","","Firefox","107.0","Windows","10.0","[0]","","63","4",""
"5670","You drop a bowling ball on an egg flan <br> T&uacute tiras una bola de boliche a un flan","{""Q0"":4}","trial","53749","survey-likert","44","417074","0.0-5.0-0.30","16","1","2022-11-29 21:24:45","2df368f4e41f066fd1c82c297b4a1108","187.188.242.142","Mozilla/5.0 (Windows NT 10.0; Win64; x64; rv:107.0) Gecko/20100101 Firefox/107.0","","Firefox","107.0","Windows","10.0","[0]","","7","4",""
"5927","You drop a toothbrush on the sponge <br> T&uacute tiras un cepillo de dientes en la esponja","{""Q0"":3}","trial","53749","survey-likert","45","423002","0.0-5.0-0.31","16","1","2022-11-29 21:24:45","2df368f4e41f066fd1c82c297b4a1108","187.188.242.142","Mozilla/5.0 (Windows NT 10.0; Win64; x64; rv:107.0) Gecko/20100101 Firefox/107.0","","Firefox","107.0","Windows","10.0","[0]","","25","3",""
"5318","You see how a donkey is drinking water <br> T&uacute ves como un burro est&aacute bebiendo agua","{""Q0"":4}","trial","53749","survey-likert","46","428322","0.0-5.0-0.32","16","1","2022-11-29 21:24:45","2df368f4e41f066fd1c82c297b4a1108","187.188.242.142","Mozilla/5.0 (Windows NT 10.0; Win64; x64; rv:107.0) Gecko/20100101 Firefox/107.0","","Firefox","107.0","Windows","10.0","[0]","","45","4",""
"3646","You see how a doctor is taking a stethoscope <br> T&uacute ves como un doctor est&aacute agarrando un estetoscopio","{""Q0"":3}","trial","53749","survey-likert","47","431969","0.0-5.0-0.33","16","1","2022-11-29 21:24:45","2df368f4e41f066fd1c82c297b4a1108","187.188.242.142","Mozilla/5.0 (Windows NT 10.0; Win64; x64; rv:107.0) Gecko/20100101 Firefox/107.0","","Firefox","107.0","Windows","10.0","[0]","","49","3",""
"4759","You drop a bowling ball on a chocolate ice-cream <br> T&uacute tiras una bola de boliche a un helado de chocolate","{""Q0"":3}","trial","53749","survey-likert","48","436730","0.0-5.0-0.34","16","1","2022-11-29 21:24:45","2df368f4e41f066fd1c82c297b4a1108","187.188.242.142","Mozilla/5.0 (Windows NT 10.0; Win64; x64; rv:107.0) Gecko/20100101 Firefox/107.0","","Firefox","107.0","Windows","10.0","[0]","","11","3",""
"4176","You see how a police officer is talking on the phone <br> T&uacute ves como un polic&iacutea est&aacute hablando por el tel&eacutefono","{""Q0"":4}","trial","53749","survey-likert","49","440907","0.0-5.0-0.35","16","1","2022-11-29 21:24:45","2df368f4e41f066fd1c82c297b4a1108","187.188.242.142","Mozilla/5.0 (Windows NT 10.0; Win64; x64; rv:107.0) Gecko/20100101 Firefox/107.0","","Firefox","107.0","Windows","10.0","[0]","","62","4",""
"4173","You see how an owl is sitting on the branch <br> T&uacute ves como un b&uacuteho est&aacute reposando en una rama","{""Q0"":4}","trial","53749","survey-likert","50","445081","0.0-5.0-0.36","16","1","2022-11-29 21:24:45","2df368f4e41f066fd1c82c297b4a1108","187.188.242.142","Mozilla/5.0 (Windows NT 10.0; Win64; x64; rv:107.0) Gecko/20100101 Firefox/107.0","","Firefox","107.0","Windows","10.0","[0]","","69","4",""
"4879","You drop a needle on the mouse pad <br> T&uacute tiras una aguja a la alfombrilla para el rat&oacuten","{""Q0"":3}","trial","53749","survey-likert","51","449961","0.0-5.0-0.37","16","1","2022-11-29 21:24:45","2df368f4e41f066fd1c82c297b4a1108","187.188.242.142","Mozilla/5.0 (Windows NT 10.0; Win64; x64; rv:107.0) Gecko/20100101 Firefox/107.0","","Firefox","107.0","Windows","10.0","[0]","","42","3",""
"3759","You drop a bowling ball on an egg <br> T&uacute tiras una bola de boliche a un huevo","{""Q0"":3}","trial","53749","survey-likert","52","453722","0.0-5.0-0.38","16","1","2022-11-29 21:24:45","2df368f4e41f066fd1c82c297b4a1108","187.188.242.142","Mozilla/5.0 (Windows NT 10.0; Win64; x64; rv:107.0) Gecko/20100101 Firefox/107.0","","Firefox","107.0","Windows","10.0","[0]","","6","3",""
"7589","You see how a photographer is taking a photo of a lion <br> T&uacute ves como un fot&oacutegrafo est&aacute tomando una foto de un le&oacuten","{""Q0"":4}","trial","53749","survey-likert","53","461314","0.0-5.0-0.39","16","1","2022-11-29 21:24:45","2df368f4e41f066fd1c82c297b4a1108","187.188.242.142","Mozilla/5.0 (Windows NT 10.0; Win64; x64; rv:107.0) Gecko/20100101 Firefox/107.0","","Firefox","107.0","Windows","10.0","[0]","","72","4",""
"7183","You drop a watch on the laptop <br> T&uacute tiras un reloj al port&aacutetil","{""Q0"":3}","trial","53749","survey-likert","54","468498","0.0-5.0-0.40","16","1","2022-11-29 21:24:45","2df368f4e41f066fd1c82c297b4a1108","187.188.242.142","Mozilla/5.0 (Windows NT 10.0; Win64; x64; rv:107.0) Gecko/20100101 Firefox/107.0","","Firefox","107.0","Windows","10.0","[0]","","37","3",""
"5318","You drop a bowling ball on a piece of cake <br> T&uacute tiras una bola de boliche a un trozo de pastel","{""Q0"":3}","trial","53749","survey-likert","55","473818","0.0-5.0-0.41","16","1","2022-11-29 21:24:45","2df368f4e41f066fd1c82c297b4a1108","187.188.242.142","Mozilla/5.0 (Windows NT 10.0; Win64; x64; rv:107.0) Gecko/20100101 Firefox/107.0","","Firefox","107.0","Windows","10.0","[0]","","2","3",""
"3535","You drop a bowling ball on an iPAD <br> T&uacute tiras una bola de boliche a un iPad","{""Q0"":3}","trial","53749","survey-likert","56","477355","0.0-5.0-0.42","16","1","2022-11-29 21:24:45","2df368f4e41f066fd1c82c297b4a1108","187.188.242.142","Mozilla/5.0 (Windows NT 10.0; Win64; x64; rv:107.0) Gecko/20100101 Firefox/107.0","","Firefox","107.0","Windows","10.0","[0]","","12","3",""
"3326","You see how a dentist is drinking a can of cola <br> T&uacute ves como un dentista est&aacute bebiendo una lata de cola","{""Q0"":4}","trial","53749","survey-likert","57","480683","0.0-5.0-0.43","16","1","2022-11-29 21:24:45","2df368f4e41f066fd1c82c297b4a1108","187.188.242.142","Mozilla/5.0 (Windows NT 10.0; Win64; x64; rv:107.0) Gecko/20100101 Firefox/107.0","","Firefox","107.0","Windows","10.0","[0]","","47","4",""
"5365","You drop a thermometer on the box <br> T&uacute tiras un term&oacutemetro a la caja","{""Q0"":3}","trial","53749","survey-likert","58","486050","0.0-5.0-0.44","16","1","2022-11-29 21:24:45","2df368f4e41f066fd1c82c297b4a1108","187.188.242.142","Mozilla/5.0 (Windows NT 10.0; Win64; x64; rv:107.0) Gecko/20100101 Firefox/107.0","","Firefox","107.0","Windows","10.0","[0]","","70","3",""
"2772","You drop a bowling ball on a tile <br> T&uacute tiras una bola de boliche a una baldosa","{""Q0"":3}","trial","53749","survey-likert","59","488826","0.0-5.0-0.45","16","1","2022-11-29 21:24:45","2df368f4e41f066fd1c82c297b4a1108","187.188.242.142","Mozilla/5.0 (Windows NT 10.0; Win64; x64; rv:107.0) Gecko/20100101 Firefox/107.0","","Firefox","107.0","Windows","10.0","[0]","","22","3",""
"2492","You drop a fork on the plate <br> T&uacute tiras un tenedor al plato","{""Q0"":3}","trial","53749","survey-likert","60","491321","0.0-5.0-0.46","16","1","2022-11-29 21:24:45","2df368f4e41f066fd1c82c297b4a1108","187.188.242.142","Mozilla/5.0 (Windows NT 10.0; Win64; x64; rv:107.0) Gecko/20100101 Firefox/107.0","","Firefox","107.0","Windows","10.0","[0]","","26","3",""
"2910","You drop a cushion on the magazine <br> T&uacute tiras un coj&iacuten a la revista","{""Q0"":3}","trial","53749","survey-likert","61","494234","0.0-5.0-0.47","16","1","2022-11-29 21:24:45","2df368f4e41f066fd1c82c297b4a1108","187.188.242.142","Mozilla/5.0 (Windows NT 10.0; Win64; x64; rv:107.0) Gecko/20100101 Firefox/107.0","","Firefox","107.0","Windows","10.0","[0]","","38","3",""
"6903","You see how an actress is taking a microphone <br> T&uacute ves como una actriz est&aacute agarrando el micr&oacutefono","{""Q0"":4}","trial","53749","survey-likert","62","501139","0.0-5.0-0.48","16","1","2022-11-29 21:24:45","2df368f4e41f066fd1c82c297b4a1108","187.188.242.142","Mozilla/5.0 (Windows NT 10.0; Win64; x64; rv:107.0) Gecko/20100101 Firefox/107.0","","Firefox","107.0","Windows","10.0","[0]","","51","4",""
"8623","You see how a cook is taking a knife <br> T&uacute ves como un cocinero est&aacute agarrando un cuchillo","{""Q0"":4}","trial","53749","survey-likert","63","509762","0.0-5.0-0.49","16","1","2022-11-29 21:24:45","2df368f4e41f066fd1c82c297b4a1108","187.188.242.142","Mozilla/5.0 (Windows NT 10.0; Win64; x64; rv:107.0) Gecko/20100101 Firefox/107.0","","Firefox","107.0","Windows","10.0","[0]","","71","4",""
"3248","You drop a bowling ball on glasses <br> T&uacute tiras una bola de boliche a unas gafas","{""Q0"":3}","trial","53749","survey-likert","64","513011","0.0-5.0-0.50","16","1","2022-11-29 21:24:45","2df368f4e41f066fd1c82c297b4a1108","187.188.242.142","Mozilla/5.0 (Windows NT 10.0; Win64; x64; rv:107.0) Gecko/20100101 Firefox/107.0","","Firefox","107.0","Windows","10.0","[0]","","9","3",""
"4261","You see how a student is writing on a board <br> T&uacute ves como un estudiante est&aacute escribiendo en la pizarra","{""Q0"":4}","trial","53749","survey-likert","65","517274","0.0-5.0-0.51","16","1","2022-11-29 21:24:45","2df368f4e41f066fd1c82c297b4a1108","187.188.242.142","Mozilla/5.0 (Windows NT 10.0; Win64; x64; rv:107.0) Gecko/20100101 Firefox/107.0","","Firefox","107.0","Windows","10.0","[0]","","50","4",""
"7581","You drop a bowling ball on a porcelain figure <br> T&uacute tiras una bola de boliche a una figura de porcelana","{""Q0"":3}","trial","53749","survey-likert","66","524856","0.0-5.0-0.52","16","1","2022-11-29 21:24:45","2df368f4e41f066fd1c82c297b4a1108","187.188.242.142","Mozilla/5.0 (Windows NT 10.0; Win64; x64; rv:107.0) Gecko/20100101 Firefox/107.0","","Firefox","107.0","Windows","10.0","[0]","","1","3",""
"1959","You drop a ring on the newspaper <br> T&uacute tiras un anillo al peri&oacutedico","{""Q0"":3}","trial","53749","survey-likert","67","526816","0.0-5.0-0.53","16","1","2022-11-29 21:24:45","2df368f4e41f066fd1c82c297b4a1108","187.188.242.142","Mozilla/5.0 (Windows NT 10.0; Win64; x64; rv:107.0) Gecko/20100101 Firefox/107.0","","Firefox","107.0","Windows","10.0","[0]","","41","3",""
"3279","You see how a postman is driving a car <br> T&uacute ves como un cartero est&aacute conduciendo un coche","{""Q0"":4}","trial","53749","survey-likert","68","530098","0.0-5.0-0.54","16","1","2022-11-29 21:24:45","2df368f4e41f066fd1c82c297b4a1108","187.188.242.142","Mozilla/5.0 (Windows NT 10.0; Win64; x64; rv:107.0) Gecko/20100101 Firefox/107.0","","Firefox","107.0","Windows","10.0","[0]","","32","4",""
"3759","You see how a zebra is playing with a horse <br> T&uacute ves como una cebra est&aacute jugando con un caballo","{""Q0"":4}","trial","53749","survey-likert","69","533859","0.0-5.0-0.55","16","1","2022-11-29 21:24:45","2df368f4e41f066fd1c82c297b4a1108","187.188.242.142","Mozilla/5.0 (Windows NT 10.0; Win64; x64; rv:107.0) Gecko/20100101 Firefox/107.0","","Firefox","107.0","Windows","10.0","[0]","","66","4",""
"2215","You drop a bowling ball on a ceramic plate <br> T&uacute tiras una bola de boliche a un plato de cer&aacutemica","{""Q0"":3}","trial","53749","survey-likert","70","536075","0.0-5.0-0.56","16","1","2022-11-29 21:24:45","2df368f4e41f066fd1c82c297b4a1108","187.188.242.142","Mozilla/5.0 (Windows NT 10.0; Win64; x64; rv:107.0) Gecko/20100101 Firefox/107.0","","Firefox","107.0","Windows","10.0","[0]","","19","3",""
"3750","You see how a parrot is eating an apple <br> T&uacute ves como un loro est&aacute comiendo una manzana","{""Q0"":4}","trial","53749","survey-likert","71","539826","0.0-5.0-0.57","16","1","2022-11-29 21:24:45","2df368f4e41f066fd1c82c297b4a1108","187.188.242.142","Mozilla/5.0 (Windows NT 10.0; Win64; x64; rv:107.0) Gecko/20100101 Firefox/107.0","","Firefox","107.0","Windows","10.0","[0]","","58","4",""
"2710","You see how a woman is taking money out of a wallet <br> T&uacute ves como una mujer est&aacute sacando dinero de su billetera","{""Q0"":4}","trial","53749","survey-likert","72","542538","0.0-5.0-0.58","16","1","2022-11-29 21:24:45","2df368f4e41f066fd1c82c297b4a1108","187.188.242.142","Mozilla/5.0 (Windows NT 10.0; Win64; x64; rv:107.0) Gecko/20100101 Firefox/107.0","","Firefox","107.0","Windows","10.0","[0]","","44","4",""
"1895","You drop a bowling ball on a light bulb <br> T&uacute tiras una bola de boliche a una bombilla","{""Q0"":3}","trial","53749","survey-likert","73","544434","0.0-5.0-0.59","16","1","2022-11-29 21:24:45","2df368f4e41f066fd1c82c297b4a1108","187.188.242.142","Mozilla/5.0 (Windows NT 10.0; Win64; x64; rv:107.0) Gecko/20100101 Firefox/107.0","","Firefox","107.0","Windows","10.0","[0]","","14","3",""
"2102","You drop a bowling ball on a paper cup <br> T&uacute tiras una bola de boliche a un vaso de papel","{""Q0"":3}","trial","53749","survey-likert","74","546539","0.0-5.0-0.60","16","1","2022-11-29 21:24:45","2df368f4e41f066fd1c82c297b4a1108","187.188.242.142","Mozilla/5.0 (Windows NT 10.0; Win64; x64; rv:107.0) Gecko/20100101 Firefox/107.0","","Firefox","107.0","Windows","10.0","[0]","","24","3",""
"2382","You see how an astronaut is putting on a space suit <br> T&uacute ves como un astronauta se est&aacute poniendo su traje espacial","{""Q0"":4}","trial","53749","survey-likert","75","548922","0.0-5.0-0.61","16","1","2022-11-29 21:24:45","2df368f4e41f066fd1c82c297b4a1108","187.188.242.142","Mozilla/5.0 (Windows NT 10.0; Win64; x64; rv:107.0) Gecko/20100101 Firefox/107.0","","Firefox","107.0","Windows","10.0","[0]","","33","4",""
"3158","You see how a woman is paying with a debit card <br> T&uacute ves como una mujer est&aacute pagando con una tarjeta de d&eacutebito","{""Q0"":4}","trial","53749","survey-likert","76","552082","0.0-5.0-0.62","16","1","2022-11-29 21:24:45","2df368f4e41f066fd1c82c297b4a1108","187.188.242.142","Mozilla/5.0 (Windows NT 10.0; Win64; x64; rv:107.0) Gecko/20100101 Firefox/107.0","","Firefox","107.0","Windows","10.0","[0]","","64","4",""
"3350","You drop a bowling ball on a piece of sushi <br> T&uacute tiras una bola de boliche a un pedazo de sushi","{""Q0"":3}","trial","53749","survey-likert","77","555434","0.0-5.0-0.63","16","1","2022-11-29 21:24:45","2df368f4e41f066fd1c82c297b4a1108","187.188.242.142","Mozilla/5.0 (Windows NT 10.0; Win64; x64; rv:107.0) Gecko/20100101 Firefox/107.0","","Firefox","107.0","Windows","10.0","[0]","","21","3",""
"4583","You see how a musician is playing a guitar <br> T&uacute ves como un m&uacutesico est&aacute tocando la guitarra","{""Q0"":4}","trial","53749","survey-likert","78","560019","0.0-5.0-0.64","16","1","2022-11-29 21:24:45","2df368f4e41f066fd1c82c297b4a1108","187.188.242.142","Mozilla/5.0 (Windows NT 10.0; Win64; x64; rv:107.0) Gecko/20100101 Firefox/107.0","","Firefox","107.0","Windows","10.0","[0]","","27","4",""
"21966","You drop a towel on the TV <br> T&uacute tiras una toalla a la televisi&oacuten","{""Q0"":3}","trial","53749","survey-likert","79","581986","0.0-5.0-0.65","16","1","2022-11-29 21:24:45","2df368f4e41f066fd1c82c297b4a1108","187.188.242.142","Mozilla/5.0 (Windows NT 10.0; Win64; x64; rv:107.0) Gecko/20100101 Firefox/107.0","","Firefox","107.0","Windows","10.0","[0]","","53","3",""
"2717","You see how a pilot is reading a book <br> T&uacute ves como un piloto est&aacute leyendo un libro","{""Q0"":4}","trial","53749","survey-likert","80","584706","0.0-5.0-0.66","16","1","2022-11-29 21:24:45","2df368f4e41f066fd1c82c297b4a1108","187.188.242.142","Mozilla/5.0 (Windows NT 10.0; Win64; x64; rv:107.0) Gecko/20100101 Firefox/107.0","","Firefox","107.0","Windows","10.0","[0]","","61","4",""
"4607","You see how a puppy is playing with a ball <br> T&uacute ves como un cachorro est&aacute jugando con una pelota","{""Q0"":4}","trial","53749","survey-likert","81","589315","0.0-5.0-0.67","16","1","2022-11-29 21:24:45","2df368f4e41f066fd1c82c297b4a1108","187.188.242.142","Mozilla/5.0 (Windows NT 10.0; Win64; x64; rv:107.0) Gecko/20100101 Firefox/107.0","","Firefox","107.0","Windows","10.0","[0]","","34","4",""
"2189","You see how a hairdresser is taking scissors <br> T&uacute ves como una peluquera est&aacute agarrando las tijeras","{""Q0"":4}","trial","53749","survey-likert","82","591507","0.0-5.0-0.68","16","1","2022-11-29 21:24:45","2df368f4e41f066fd1c82c297b4a1108","187.188.242.142","Mozilla/5.0 (Windows NT 10.0; Win64; x64; rv:107.0) Gecko/20100101 Firefox/107.0","","Firefox","107.0","Windows","10.0","[0]","","60","4",""
"1797","You see how a thief is stealing a wallet <br> T&uacute ves como un ladr&oacuten est&aacute robando una billetera","{""Q0"":4}","trial","53749","survey-likert","83","593306","0.0-5.0-0.69","16","1","2022-11-29 21:24:45","2df368f4e41f066fd1c82c297b4a1108","187.188.242.142","Mozilla/5.0 (Windows NT 10.0; Win64; x64; rv:107.0) Gecko/20100101 Firefox/107.0","","Firefox","107.0","Windows","10.0","[0]","","68","4",""
"1358","You drop a bowling ball on a donut <br> T&uacute tiras una bola de boliche a una rosquilla","{""Q0"":3}","trial","53749","survey-likert","84","594666","0.0-5.0-0.70","16","1","2022-11-29 21:24:45","2df368f4e41f066fd1c82c297b4a1108","187.188.242.142","Mozilla/5.0 (Windows NT 10.0; Win64; x64; rv:107.0) Gecko/20100101 Firefox/107.0","","Firefox","107.0","Windows","10.0","[0]","","17","3",""
"2285","You see how a man is playing with a cat <br> T&uacute ves como un hombre est&aacute jugando con un gato","{""Q0"":4}","trial","53749","survey-likert","85","596954","0.0-5.0-0.71","16","1","2022-11-29 21:24:45","2df368f4e41f066fd1c82c297b4a1108","187.188.242.142","Mozilla/5.0 (Windows NT 10.0; Win64; x64; rv:107.0) Gecko/20100101 Firefox/107.0","","Firefox","107.0","Windows","10.0","[0]","","67","4",""
"1062","
    <p style=""font-size:20px;""> You have completed the experiment portion! </p>
    <p style=""font-size:20px;""> Before you are done, we would like you to answer some basic demographic questions. </p>
    <p style=""font-size:20px;""> Note that your answers to these questions will not affect your compensation/credit. </p>
    <p style=""font-size:20px;""> Click the button below to continue.</p>
    ","0","demo","53749","html-button-response","86","598018","0.0-6.0","16","1","2022-11-29 21:24:45","2df368f4e41f066fd1c82c297b4a1108","187.188.242.142","Mozilla/5.0 (Windows NT 10.0; Win64; x64; rv:107.0) Gecko/20100101 Firefox/107.0","","Firefox","107.0","Windows","10.0","","","","",""
"17860","","{""Age"":""22"",""Gender"":""male"",""Education"":""17""}","demo","53749","survey-text","87","615882","0.0-7.0-0.0","16","1","2022-11-29 21:24:45","2df368f4e41f066fd1c82c297b4a1108","187.188.242.142","Mozilla/5.0 (Windows NT 10.0; Win64; x64; rv:107.0) Gecko/20100101 Firefox/107.0","","Firefox","107.0","Windows","10.0","","","","",""
"7341","","{""Race"":[""More than once race""]}","demo","53749","survey-multi-select","88","623226","0.0-7.0-1.0","16","1","2022-11-29 21:24:45","2df368f4e41f066fd1c82c297b4a1108","187.188.242.142","Mozilla/5.0 (Windows NT 10.0; Win64; x64; rv:107.0) Gecko/20100101 Firefox/107.0","","Firefox","107.0","Windows","10.0","[0]","","","",""
"9694","","{""Latino"":""Yes"",""Alert"":""Afternoon""}","demo","53749","survey-multi-choice","89","632922","0.0-7.0-2.0","16","1","2022-11-29 21:24:45","2df368f4e41f066fd1c82c297b4a1108","187.188.242.142","Mozilla/5.0 (Windows NT 10.0; Win64; x64; rv:107.0) Gecko/20100101 Firefox/107.0","","Firefox","107.0","Windows","10.0","[0,1]","","","",""
"2220","","{""Q0"":""""}","demo","53749","survey-text","90","635146","0.0-7.0-3.0","16","1","2022-11-29 21:24:45","2df368f4e41f066fd1c82c297b4a1108","187.188.242.142","Mozilla/5.0 (Windows NT 10.0; Win64; x64; rv:107.0) Gecko/20100101 Firefox/107.0","","Firefox","107.0","Windows","10.0","","","","",""
"1367","<p>Thank you for participating! </p><strong>Your completion code is: CXEJB7NH. Please copy-paste this code and submit it on Prolific.</strong><p>Click <a href=""https://drive.google.com/file/d/1c70cdHFlc0AaR6RujLWLJwWkv1RbHQJY/view?usp=sharing"" target=""_blank"" rel=""noopener noreferrer"">here</a> to access the debriefing form and know more about our research. <p> Please click the button below to finish the experiment and save your data.</p> <p> IMPORTANT: Please <strong>do not leave this page </strong> without clicking the button below.</p> <p> You may close the tab/window after you click the button below.","0","","","html-button-response","91","636514","0.0-8.0","16","1","2022-11-29 21:24:45","2df368f4e41f066fd1c82c297b4a1108","187.188.242.142","Mozilla/5.0 (Windows NT 10.0; Win64; x64; rv:107.0) Gecko/20100101 Firefox/107.0","","Firefox","107.0","Windows","10.0","","","","",""
