"rt","stimulus","response","typeoftrial","subject","trial_type","trial_index","time_elapsed","internal_node_id","run_id","condition","recorded_at","source_code_version","ip","user_agent","device","browser","browser_version","platform","platform_version","question_order","practice_rating","sentence_num","rating","Experiment"
"8661","
        <p style=""font-size:20px;""> Welcome! Thank you for your interest in our study. </p>
        <p style=""font-size:20px;""> This study is being conducted by researchers at Bowdoin College.</p>
        <p style=""font-size:20px;""> In this experiment, you will be asked to rate the accuracy of English and Spanish translations.</p>
        <p style=""font-size:20px;""> The entire experiment should not last more than 20 minutes. You will be paid $3 USD for your participation. </p>
        <p style=""font-size:20px;""> Please click <a href = ""https://drive.google.com/file/d/1L92a02eEKCpaAEipmqDcBCDR7rsarqFE/view?usp=sharing"" target = ""_blank"">here</a> to read the full consent form. </p>
        <p style=""font-size:20px;""> If you agree to participate, please click the button below to continue to experiment instructions.</p>
        ","0","consent","22499","html-button-response","0","8663","0.0-0.0","15","1","2022-11-29 21:24:44","2df368f4e41f066fd1c82c297b4a1108","189.190.63.83","Mozilla/5.0 (Windows NT 10.0; Win64; x64) AppleWebKit/537.36 (KHTML, like Gecko) Chrome/107.0.0.0 Safari/537.36","WebKit","Chrome","107.0.0.0","Windows","10.0","","","","",""
"4459","","{""ID"":""613a69d8ed1c11f70b3d37c7""}","ID","22499","survey-text","1","13129","0.0-1.0","15","1","2022-11-29 21:24:44","2df368f4e41f066fd1c82c297b4a1108","189.190.63.83","Mozilla/5.0 (Windows NT 10.0; Win64; x64) AppleWebKit/537.36 (KHTML, like Gecko) Chrome/107.0.0.0 Safari/537.36","WebKit","Chrome","107.0.0.0","Windows","10.0","","","","",""
"10079","
        <p style=""font-size:20px;""> You are about to begin the practice test. </p>
        <p style=""font-size:20px;""> On each trial, you will see a sentence in English and its corresponding Spanish translation. </p>
        <p style=""font-size:20px;""> You will rate the accuracy of the translation on a scale from ""Not at all accurate"" to ""Very accurate."" </p>
        <p style=""font-size:20px;""> If you rate the translation as ""Somewhat innaccurate"" or ""Not at all accurate,"" you will be asked to provide your own translation or a reason why the translation is inaccurate. </p>
        <p style=""font-size:20px;""> Click the button below to continue to the practice session.</p>","0","instructions","22499","html-button-response","2","23209","0.0-2.0","15","1","2022-11-29 21:24:44","2df368f4e41f066fd1c82c297b4a1108","189.190.63.83","Mozilla/5.0 (Windows NT 10.0; Win64; x64) AppleWebKit/537.36 (KHTML, like Gecko) Chrome/107.0.0.0 Safari/537.36","WebKit","Chrome","107.0.0.0","Windows","10.0","","","","",""
"18588","You see how an artist is running <br> T&uacute ves como un artista est&aacute corriendo","{""Q0"":4}","practice","22499","survey-likert","3","41798","0.0-3.0-0.0","15","1","2022-11-29 21:24:44","2df368f4e41f066fd1c82c297b4a1108","189.190.63.83","Mozilla/5.0 (Windows NT 10.0; Win64; x64) AppleWebKit/537.36 (KHTML, like Gecko) Chrome/107.0.0.0 Safari/537.36","WebKit","Chrome","107.0.0.0","Windows","10.0","[0]","4","","",""
"6543","You see how a tiger is playing with a goose <br> T&uacute ves como un le&oacuten come una pizza","{""Q0"":0}","practice","22499","survey-likert","4","48347","0.0-3.0-0.1","15","1","2022-11-29 21:24:44","2df368f4e41f066fd1c82c297b4a1108","189.190.63.83","Mozilla/5.0 (Windows NT 10.0; Win64; x64) AppleWebKit/537.36 (KHTML, like Gecko) Chrome/107.0.0.0 Safari/537.36","WebKit","Chrome","107.0.0.0","Windows","10.0","[0]","0","","",""
"13812","You see how a tiger is playing with a goose <br> T&uacute ves como un le&oacuten come una pizza","{""Q0"":""Ves como un leon esta jugando con un ganzo""}","practice_low_rate","22499","survey-text","5","62166","0.0-3.0-1.1-0.1","15","1","2022-11-29 21:24:44","2df368f4e41f066fd1c82c297b4a1108","189.190.63.83","Mozilla/5.0 (Windows NT 10.0; Win64; x64) AppleWebKit/537.36 (KHTML, like Gecko) Chrome/107.0.0.0 Safari/537.36","WebKit","Chrome","107.0.0.0","Windows","10.0","","","5","",""
"7164","You drop a rock on a phone <br> T&uacute tiras una piedra a un tel&eacutefono","{""Q0"":4}","practice","22499","survey-likert","6","69331","0.0-3.0-0.2","15","1","2022-11-29 21:24:44","2df368f4e41f066fd1c82c297b4a1108","189.190.63.83","Mozilla/5.0 (Windows NT 10.0; Win64; x64) AppleWebKit/537.36 (KHTML, like Gecko) Chrome/107.0.0.0 Safari/537.36","WebKit","Chrome","107.0.0.0","Windows","10.0","[0]","4","","",""
"5515","You see how a duck is playing with a pumpkin <br> T&uacute ves como un pato est&aacute jugando con una calabaza","{""Q0"":4}","practice","22499","survey-likert","7","74851","0.0-3.0-0.3","15","1","2022-11-29 21:24:44","2df368f4e41f066fd1c82c297b4a1108","189.190.63.83","Mozilla/5.0 (Windows NT 10.0; Win64; x64) AppleWebKit/537.36 (KHTML, like Gecko) Chrome/107.0.0.0 Safari/537.36","WebKit","Chrome","107.0.0.0","Windows","10.0","[0]","4","","",""
"7344","You drop a bowling ball on a mircrowave <br> T&uacute tiras una bola de boliche a un horno","{""Q0"":4}","practice","22499","survey-likert","8","82200","0.0-3.0-0.4","15","1","2022-11-29 21:24:44","2df368f4e41f066fd1c82c297b4a1108","189.190.63.83","Mozilla/5.0 (Windows NT 10.0; Win64; x64) AppleWebKit/537.36 (KHTML, like Gecko) Chrome/107.0.0.0 Safari/537.36","WebKit","Chrome","107.0.0.0","Windows","10.0","[0]","4","","",""
"10302","You see how a teacher is drawing a picture <br> T&uacute ves como un maestro pinta una foto","{""Q0"":3}","practice","22499","survey-likert","9","92507","0.0-3.0-0.5","15","1","2022-11-29 21:24:44","2df368f4e41f066fd1c82c297b4a1108","189.190.63.83","Mozilla/5.0 (Windows NT 10.0; Win64; x64) AppleWebKit/537.36 (KHTML, like Gecko) Chrome/107.0.0.0 Safari/537.36","WebKit","Chrome","107.0.0.0","Windows","10.0","[0]","3","","",""
"2415","<p style=""font-size:20px;"">You have now completed the practice session! </p>
        <p style=""font-size:20px;"">You will now move on to the main experiment. </p>
        <p style=""font-size:20px;"">Please click the button below to continue. </p>","0","movetoexp","22499","html-button-response","10","94926","0.0-4.0","15","1","2022-11-29 21:24:44","2df368f4e41f066fd1c82c297b4a1108","189.190.63.83","Mozilla/5.0 (Windows NT 10.0; Win64; x64) AppleWebKit/537.36 (KHTML, like Gecko) Chrome/107.0.0.0 Safari/537.36","WebKit","Chrome","107.0.0.0","Windows","10.0","","","","",""
"3931","You drop a bowling ball on a tomato <br> T&uacute tiras una bola de boliche a un tomate","{""Q0"":4}","trial","22499","survey-likert","11","98858","0.0-5.0-0.0","15","1","2022-11-29 21:24:44","2df368f4e41f066fd1c82c297b4a1108","189.190.63.83","Mozilla/5.0 (Windows NT 10.0; Win64; x64) AppleWebKit/537.36 (KHTML, like Gecko) Chrome/107.0.0.0 Safari/537.36","WebKit","Chrome","107.0.0.0","Windows","10.0","[0]","","23","4",""
"3216","You see how a mouse is eating cheese <br> T&uacute ves como el rat&oacuten est&aacute comiendo queso","{""Q0"":4}","trial","22499","survey-likert","12","102079","0.0-5.0-0.1","15","1","2022-11-29 21:24:44","2df368f4e41f066fd1c82c297b4a1108","189.190.63.83","Mozilla/5.0 (Windows NT 10.0; Win64; x64) AppleWebKit/537.36 (KHTML, like Gecko) Chrome/107.0.0.0 Safari/537.36","WebKit","Chrome","107.0.0.0","Windows","10.0","[0]","","56","4",""
"4663","You drop a bowling ball on a piece of cake <br> T&uacute tiras una bola de boliche a un trozo de pastel","{""Q0"":4}","trial","22499","survey-likert","13","106746","0.0-5.0-0.2","15","1","2022-11-29 21:24:44","2df368f4e41f066fd1c82c297b4a1108","189.190.63.83","Mozilla/5.0 (Windows NT 10.0; Win64; x64) AppleWebKit/537.36 (KHTML, like Gecko) Chrome/107.0.0.0 Safari/537.36","WebKit","Chrome","107.0.0.0","Windows","10.0","[0]","","2","4",""
"7654","You drop a bowling ball on a hat <br> T&uacute tiras una bola de boliche a una gorra","{""Q0"":4}","trial","22499","survey-likert","14","114405","0.0-5.0-0.3","15","1","2022-11-29 21:24:44","2df368f4e41f066fd1c82c297b4a1108","189.190.63.83","Mozilla/5.0 (Windows NT 10.0; Win64; x64) AppleWebKit/537.36 (KHTML, like Gecko) Chrome/107.0.0.0 Safari/537.36","WebKit","Chrome","107.0.0.0","Windows","10.0","[0]","","10","4",""
"14366","You see how a thief is stealing a wallet <br> T&uacute ves como un ladr&oacuten est&aacute robando una billetera","{""Q0"":4}","trial","22499","survey-likert","15","128776","0.0-5.0-0.4","15","1","2022-11-29 21:24:44","2df368f4e41f066fd1c82c297b4a1108","189.190.63.83","Mozilla/5.0 (Windows NT 10.0; Win64; x64) AppleWebKit/537.36 (KHTML, like Gecko) Chrome/107.0.0.0 Safari/537.36","WebKit","Chrome","107.0.0.0","Windows","10.0","[0]","","68","4",""
"9503","You drop a bowling ball on a rice cake <br> T&uacute tiras una bola de boliche a una tortita de arroz","{""Q0"":4}","trial","22499","survey-likert","16","138283","0.0-5.0-0.5","15","1","2022-11-29 21:24:44","2df368f4e41f066fd1c82c297b4a1108","189.190.63.83","Mozilla/5.0 (Windows NT 10.0; Win64; x64) AppleWebKit/537.36 (KHTML, like Gecko) Chrome/107.0.0.0 Safari/537.36","WebKit","Chrome","107.0.0.0","Windows","10.0","[0]","","18","4",""
"4659","You drop a pencil on the shoe <br> T&uacute tiras un l&aacutepiz al zapato","{""Q0"":4}","trial","22499","survey-likert","17","142946","0.0-5.0-0.6","15","1","2022-11-29 21:24:44","2df368f4e41f066fd1c82c297b4a1108","189.190.63.83","Mozilla/5.0 (Windows NT 10.0; Win64; x64) AppleWebKit/537.36 (KHTML, like Gecko) Chrome/107.0.0.0 Safari/537.36","WebKit","Chrome","107.0.0.0","Windows","10.0","[0]","","40","4",""
"4477","You drop a remote on the rug <br> T&uacute tiras un control remoto a la alfombra","{""Q0"":4}","trial","22499","survey-likert","18","147427","0.0-5.0-0.7","15","1","2022-11-29 21:24:44","2df368f4e41f066fd1c82c297b4a1108","189.190.63.83","Mozilla/5.0 (Windows NT 10.0; Win64; x64) AppleWebKit/537.36 (KHTML, like Gecko) Chrome/107.0.0.0 Safari/537.36","WebKit","Chrome","107.0.0.0","Windows","10.0","[0]","","39","4",""
"4854","You see how a hairdresser is taking scissors <br> T&uacute ves como una peluquera est&aacute agarrando las tijeras","{""Q0"":4}","trial","22499","survey-likert","19","152285","0.0-5.0-0.8","15","1","2022-11-29 21:24:44","2df368f4e41f066fd1c82c297b4a1108","189.190.63.83","Mozilla/5.0 (Windows NT 10.0; Win64; x64) AppleWebKit/537.36 (KHTML, like Gecko) Chrome/107.0.0.0 Safari/537.36","WebKit","Chrome","107.0.0.0","Windows","10.0","[0]","","60","4",""
"8115","You see how a horse is chewing hay <br> T&uacute ves como un caballo est&aacute masticando el heno","{""Q0"":4}","trial","22499","survey-likert","20","160404","0.0-5.0-0.9","15","1","2022-11-29 21:24:44","2df368f4e41f066fd1c82c297b4a1108","189.190.63.83","Mozilla/5.0 (Windows NT 10.0; Win64; x64) AppleWebKit/537.36 (KHTML, like Gecko) Chrome/107.0.0.0 Safari/537.36","WebKit","Chrome","107.0.0.0","Windows","10.0","[0]","","55","4",""
"2901","You drop a thermometer on the box <br> T&uacute tiras un term&oacutemetro a la caja","{""Q0"":4}","trial","22499","survey-likert","21","163309","0.0-5.0-0.10","15","1","2022-11-29 21:24:44","2df368f4e41f066fd1c82c297b4a1108","189.190.63.83","Mozilla/5.0 (Windows NT 10.0; Win64; x64) AppleWebKit/537.36 (KHTML, like Gecko) Chrome/107.0.0.0 Safari/537.36","WebKit","Chrome","107.0.0.0","Windows","10.0","[0]","","70","4",""
"5890","You see how a woman is paying with a debit card <br> T&uacute ves como una mujer est&aacute pagando con una tarjeta de d&eacutebito","{""Q0"":4}","trial","22499","survey-likert","22","169203","0.0-5.0-0.11","15","1","2022-11-29 21:24:44","2df368f4e41f066fd1c82c297b4a1108","189.190.63.83","Mozilla/5.0 (Windows NT 10.0; Win64; x64) AppleWebKit/537.36 (KHTML, like Gecko) Chrome/107.0.0.0 Safari/537.36","WebKit","Chrome","107.0.0.0","Windows","10.0","[0]","","64","4",""
"3479","You drop a bowling ball on a ceramic plate <br> T&uacute tiras una bola de boliche a un plato de cer&aacutemica","{""Q0"":4}","trial","22499","survey-likert","23","172686","0.0-5.0-0.12","15","1","2022-11-29 21:24:44","2df368f4e41f066fd1c82c297b4a1108","189.190.63.83","Mozilla/5.0 (Windows NT 10.0; Win64; x64) AppleWebKit/537.36 (KHTML, like Gecko) Chrome/107.0.0.0 Safari/537.36","WebKit","Chrome","107.0.0.0","Windows","10.0","[0]","","19","4",""
"2855","You drop a toothbrush on the sponge <br> T&uacute tiras un cepillo de dientes en la esponja","{""Q0"":4}","trial","22499","survey-likert","24","175545","0.0-5.0-0.13","15","1","2022-11-29 21:24:44","2df368f4e41f066fd1c82c297b4a1108","189.190.63.83","Mozilla/5.0 (Windows NT 10.0; Win64; x64) AppleWebKit/537.36 (KHTML, like Gecko) Chrome/107.0.0.0 Safari/537.36","WebKit","Chrome","107.0.0.0","Windows","10.0","[0]","","25","4",""
"3169","You drop a watch on the laptop <br> T&uacute tiras un reloj al port&aacutetil","{""Q0"":4}","trial","22499","survey-likert","25","178718","0.0-5.0-0.14","15","1","2022-11-29 21:24:44","2df368f4e41f066fd1c82c297b4a1108","189.190.63.83","Mozilla/5.0 (Windows NT 10.0; Win64; x64) AppleWebKit/537.36 (KHTML, like Gecko) Chrome/107.0.0.0 Safari/537.36","WebKit","Chrome","107.0.0.0","Windows","10.0","[0]","","37","4",""
"3486","You drop a bowling ball on an iPhone <br> T&uacute tiras una bola de boliche a un iPhone","{""Q0"":4}","trial","22499","survey-likert","26","182208","0.0-5.0-0.15","15","1","2022-11-29 21:24:44","2df368f4e41f066fd1c82c297b4a1108","189.190.63.83","Mozilla/5.0 (Windows NT 10.0; Win64; x64) AppleWebKit/537.36 (KHTML, like Gecko) Chrome/107.0.0.0 Safari/537.36","WebKit","Chrome","107.0.0.0","Windows","10.0","[0]","","13","4",""
"3359","You see how a donkey is drinking water <br> T&uacute ves como un burro est&aacute bebiendo agua","{""Q0"":4}","trial","22499","survey-likert","27","185571","0.0-5.0-0.16","15","1","2022-11-29 21:24:44","2df368f4e41f066fd1c82c297b4a1108","189.190.63.83","Mozilla/5.0 (Windows NT 10.0; Win64; x64) AppleWebKit/537.36 (KHTML, like Gecko) Chrome/107.0.0.0 Safari/537.36","WebKit","Chrome","107.0.0.0","Windows","10.0","[0]","","45","4",""
"3769","You see how a puppy is playing with a ball <br> T&uacute ves como un cachorro est&aacute jugando con una pelota","{""Q0"":4}","trial","22499","survey-likert","28","189344","0.0-5.0-0.17","15","1","2022-11-29 21:24:44","2df368f4e41f066fd1c82c297b4a1108","189.190.63.83","Mozilla/5.0 (Windows NT 10.0; Win64; x64) AppleWebKit/537.36 (KHTML, like Gecko) Chrome/107.0.0.0 Safari/537.36","WebKit","Chrome","107.0.0.0","Windows","10.0","[0]","","34","4",""
"3739","You see how a kitten is playing in the sandbox <br> T&uacute ves como un gatito est&aacute jugando en la caja de arena","{""Q0"":4}","trial","22499","survey-likert","29","193087","0.0-5.0-0.18","15","1","2022-11-29 21:24:44","2df368f4e41f066fd1c82c297b4a1108","189.190.63.83","Mozilla/5.0 (Windows NT 10.0; Win64; x64) AppleWebKit/537.36 (KHTML, like Gecko) Chrome/107.0.0.0 Safari/537.36","WebKit","Chrome","107.0.0.0","Windows","10.0","[0]","","52","4",""
"4032","You drop a bowling ball on a cracker <br> T&uacute tiras una bola de boliche a una galleta","{""Q0"":4}","trial","22499","survey-likert","30","197123","0.0-5.0-0.19","15","1","2022-11-29 21:24:44","2df368f4e41f066fd1c82c297b4a1108","189.190.63.83","Mozilla/5.0 (Windows NT 10.0; Win64; x64) AppleWebKit/537.36 (KHTML, like Gecko) Chrome/107.0.0.0 Safari/537.36","WebKit","Chrome","107.0.0.0","Windows","10.0","[0]","","4","4",""
"4383","You see how a president is writing in the notebook <br> T&uacute ves como un presidente est&aacute escribiendo en la libreta","{""Q0"":4}","trial","22499","survey-likert","31","201510","0.0-5.0-0.20","15","1","2022-11-29 21:24:44","2df368f4e41f066fd1c82c297b4a1108","189.190.63.83","Mozilla/5.0 (Windows NT 10.0; Win64; x64) AppleWebKit/537.36 (KHTML, like Gecko) Chrome/107.0.0.0 Safari/537.36","WebKit","Chrome","107.0.0.0","Windows","10.0","[0]","","63","4",""
"5105","You see how an astronaut is putting on a space suit <br> T&uacute ves como un astronauta se est&aacute poniendo su traje espacial","{""Q0"":4}","trial","22499","survey-likert","32","206619","0.0-5.0-0.21","15","1","2022-11-29 21:24:44","2df368f4e41f066fd1c82c297b4a1108","189.190.63.83","Mozilla/5.0 (Windows NT 10.0; Win64; x64) AppleWebKit/537.36 (KHTML, like Gecko) Chrome/107.0.0.0 Safari/537.36","WebKit","Chrome","107.0.0.0","Windows","10.0","[0]","","33","4",""
"2943","You drop a ring on the newspaper <br> T&uacute tiras un anillo al peri&oacutedico","{""Q0"":4}","trial","22499","survey-likert","33","209566","0.0-5.0-0.22","15","1","2022-11-29 21:24:44","2df368f4e41f066fd1c82c297b4a1108","189.190.63.83","Mozilla/5.0 (Windows NT 10.0; Win64; x64) AppleWebKit/537.36 (KHTML, like Gecko) Chrome/107.0.0.0 Safari/537.36","WebKit","Chrome","107.0.0.0","Windows","10.0","[0]","","41","4",""
"3028","You see how an elephant is eating a watermelon <br> T&uacute ves como un elefante est&aacute comiendo una sand&iacutea","{""Q0"":4}","trial","22499","survey-likert","34","212600","0.0-5.0-0.23","15","1","2022-11-29 21:24:44","2df368f4e41f066fd1c82c297b4a1108","189.190.63.83","Mozilla/5.0 (Windows NT 10.0; Win64; x64) AppleWebKit/537.36 (KHTML, like Gecko) Chrome/107.0.0.0 Safari/537.36","WebKit","Chrome","107.0.0.0","Windows","10.0","[0]","","31","4",""
"4538","You drop a bowling ball on a paper cup <br> T&uacute tiras una bola de boliche a un vaso de papel","{""Q0"":4}","trial","22499","survey-likert","35","217142","0.0-5.0-0.24","15","1","2022-11-29 21:24:44","2df368f4e41f066fd1c82c297b4a1108","189.190.63.83","Mozilla/5.0 (Windows NT 10.0; Win64; x64) AppleWebKit/537.36 (KHTML, like Gecko) Chrome/107.0.0.0 Safari/537.36","WebKit","Chrome","107.0.0.0","Windows","10.0","[0]","","24","4",""
"4630","You drop a bowling ball on a strawberry <br> T&uacute tiras una bola de boliche a una fresa","{""Q0"":4}","trial","22499","survey-likert","36","221777","0.0-5.0-0.25","15","1","2022-11-29 21:24:44","2df368f4e41f066fd1c82c297b4a1108","189.190.63.83","Mozilla/5.0 (Windows NT 10.0; Win64; x64) AppleWebKit/537.36 (KHTML, like Gecko) Chrome/107.0.0.0 Safari/537.36","WebKit","Chrome","107.0.0.0","Windows","10.0","[0]","","20","4",""
"3592","You see how a boy is peeling a banana <br> T&uacute ves como un ni&ntildeo est&aacute pelando una banana","{""Q0"":4}","trial","22499","survey-likert","37","225374","0.0-5.0-0.26","15","1","2022-11-29 21:24:44","2df368f4e41f066fd1c82c297b4a1108","189.190.63.83","Mozilla/5.0 (Windows NT 10.0; Win64; x64) AppleWebKit/537.36 (KHTML, like Gecko) Chrome/107.0.0.0 Safari/537.36","WebKit","Chrome","107.0.0.0","Windows","10.0","[0]","","30","4",""
"4949","You see how a dentist is drinking a can of cola <br> T&uacute ves como un dentista est&aacute bebiendo una lata de cola","{""Q0"":4}","trial","22499","survey-likert","38","230328","0.0-5.0-0.27","15","1","2022-11-29 21:24:44","2df368f4e41f066fd1c82c297b4a1108","189.190.63.83","Mozilla/5.0 (Windows NT 10.0; Win64; x64) AppleWebKit/537.36 (KHTML, like Gecko) Chrome/107.0.0.0 Safari/537.36","WebKit","Chrome","107.0.0.0","Windows","10.0","[0]","","47","4",""
"2134","You see how a man is shaving his beard <br> T&uacute ves como un hombre se est&aacute afeitando la barba","{""Q0"":4}","trial","22499","survey-likert","39","232466","0.0-5.0-0.28","15","1","2022-11-29 21:24:44","2df368f4e41f066fd1c82c297b4a1108","189.190.63.83","Mozilla/5.0 (Windows NT 10.0; Win64; x64) AppleWebKit/537.36 (KHTML, like Gecko) Chrome/107.0.0.0 Safari/537.36","WebKit","Chrome","107.0.0.0","Windows","10.0","[0]","","43","4",""
"3258","You drop a needle on the mouse pad <br> T&uacute tiras una aguja a la alfombrilla para el rat&oacuten","{""Q0"":4}","trial","22499","survey-likert","40","235729","0.0-5.0-0.29","15","1","2022-11-29 21:24:44","2df368f4e41f066fd1c82c297b4a1108","189.190.63.83","Mozilla/5.0 (Windows NT 10.0; Win64; x64) AppleWebKit/537.36 (KHTML, like Gecko) Chrome/107.0.0.0 Safari/537.36","WebKit","Chrome","107.0.0.0","Windows","10.0","[0]","","42","4",""
"3711","You drop a bowling ball on a blackberry <br> T&uacute tiras una bola de boliche a una mora","{""Q0"":4}","trial","22499","survey-likert","41","239445","0.0-5.0-0.30","15","1","2022-11-29 21:24:44","2df368f4e41f066fd1c82c297b4a1108","189.190.63.83","Mozilla/5.0 (Windows NT 10.0; Win64; x64) AppleWebKit/537.36 (KHTML, like Gecko) Chrome/107.0.0.0 Safari/537.36","WebKit","Chrome","107.0.0.0","Windows","10.0","[0]","","8","4",""
"3240","You see how a woman is taking money out of a wallet <br> T&uacute ves como una mujer est&aacute sacando dinero de su billetera","{""Q0"":4}","trial","22499","survey-likert","42","242690","0.0-5.0-0.31","15","1","2022-11-29 21:24:44","2df368f4e41f066fd1c82c297b4a1108","189.190.63.83","Mozilla/5.0 (Windows NT 10.0; Win64; x64) AppleWebKit/537.36 (KHTML, like Gecko) Chrome/107.0.0.0 Safari/537.36","WebKit","Chrome","107.0.0.0","Windows","10.0","[0]","","44","4",""
"3789","You see how a student is writing on a board <br> T&uacute ves como un estudiante est&aacute escribiendo en la pizarra","{""Q0"":4}","trial","22499","survey-likert","43","246483","0.0-5.0-0.32","15","1","2022-11-29 21:24:44","2df368f4e41f066fd1c82c297b4a1108","189.190.63.83","Mozilla/5.0 (Windows NT 10.0; Win64; x64) AppleWebKit/537.36 (KHTML, like Gecko) Chrome/107.0.0.0 Safari/537.36","WebKit","Chrome","107.0.0.0","Windows","10.0","[0]","","50","4",""
"2957","You drop a bowling ball on a donut <br> T&uacute tiras una bola de boliche a una rosquilla","{""Q0"":4}","trial","22499","survey-likert","44","249445","0.0-5.0-0.33","15","1","2022-11-29 21:24:44","2df368f4e41f066fd1c82c297b4a1108","189.190.63.83","Mozilla/5.0 (Windows NT 10.0; Win64; x64) AppleWebKit/537.36 (KHTML, like Gecko) Chrome/107.0.0.0 Safari/537.36","WebKit","Chrome","107.0.0.0","Windows","10.0","[0]","","17","4",""
"3096","You see how a teenage girl is playing the piano <br> T&uacute ves como una ni&ntildea adolescente est&aacute tocando el piano","{""Q0"":4}","trial","22499","survey-likert","45","252546","0.0-5.0-0.34","15","1","2022-11-29 21:24:44","2df368f4e41f066fd1c82c297b4a1108","189.190.63.83","Mozilla/5.0 (Windows NT 10.0; Win64; x64) AppleWebKit/537.36 (KHTML, like Gecko) Chrome/107.0.0.0 Safari/537.36","WebKit","Chrome","107.0.0.0","Windows","10.0","[0]","","54","4",""
"2206","You drop a towel on the TV <br> T&uacute tiras una toalla a la televisi&oacuten","{""Q0"":4}","trial","22499","survey-likert","46","254757","0.0-5.0-0.35","15","1","2022-11-29 21:24:44","2df368f4e41f066fd1c82c297b4a1108","189.190.63.83","Mozilla/5.0 (Windows NT 10.0; Win64; x64) AppleWebKit/537.36 (KHTML, like Gecko) Chrome/107.0.0.0 Safari/537.36","WebKit","Chrome","107.0.0.0","Windows","10.0","[0]","","53","4",""
"3180","You see how a zebra is playing with a horse <br> T&uacute ves como una cebra est&aacute jugando con un caballo","{""Q0"":4}","trial","22499","survey-likert","47","257941","0.0-5.0-0.36","15","1","2022-11-29 21:24:44","2df368f4e41f066fd1c82c297b4a1108","189.190.63.83","Mozilla/5.0 (Windows NT 10.0; Win64; x64) AppleWebKit/537.36 (KHTML, like Gecko) Chrome/107.0.0.0 Safari/537.36","WebKit","Chrome","107.0.0.0","Windows","10.0","[0]","","66","4",""
"2744","You drop a bowling ball on a light bulb <br> T&uacute tiras una bola de boliche a una bombilla","{""Q0"":4}","trial","22499","survey-likert","48","260690","0.0-5.0-0.37","15","1","2022-11-29 21:24:44","2df368f4e41f066fd1c82c297b4a1108","189.190.63.83","Mozilla/5.0 (Windows NT 10.0; Win64; x64) AppleWebKit/537.36 (KHTML, like Gecko) Chrome/107.0.0.0 Safari/537.36","WebKit","Chrome","107.0.0.0","Windows","10.0","[0]","","14","4",""
"5434","You see how a police officer is talking on the phone <br> T&uacute ves como un polic&iacutea est&aacute hablando por el tel&eacutefono","{""Q0"":4}","trial","22499","survey-likert","49","266128","0.0-5.0-0.38","15","1","2022-11-29 21:24:44","2df368f4e41f066fd1c82c297b4a1108","189.190.63.83","Mozilla/5.0 (Windows NT 10.0; Win64; x64) AppleWebKit/537.36 (KHTML, like Gecko) Chrome/107.0.0.0 Safari/537.36","WebKit","Chrome","107.0.0.0","Windows","10.0","[0]","","62","4",""
"3878","You see how a parrot is eating an apple <br> T&uacute ves como un loro est&aacute comiendo una manzana","{""Q0"":4}","trial","22499","survey-likert","50","270011","0.0-5.0-0.39","15","1","2022-11-29 21:24:44","2df368f4e41f066fd1c82c297b4a1108","189.190.63.83","Mozilla/5.0 (Windows NT 10.0; Win64; x64) AppleWebKit/537.36 (KHTML, like Gecko) Chrome/107.0.0.0 Safari/537.36","WebKit","Chrome","107.0.0.0","Windows","10.0","[0]","","58","4",""
"2985","You see how a man is playing with a cat <br> T&uacute ves como un hombre est&aacute jugando con un gato","{""Q0"":4}","trial","22499","survey-likert","51","273001","0.0-5.0-0.40","15","1","2022-11-29 21:24:44","2df368f4e41f066fd1c82c297b4a1108","189.190.63.83","Mozilla/5.0 (Windows NT 10.0; Win64; x64) AppleWebKit/537.36 (KHTML, like Gecko) Chrome/107.0.0.0 Safari/537.36","WebKit","Chrome","107.0.0.0","Windows","10.0","[0]","","67","4",""
"3793","You see how a postman is driving a car <br> T&uacute ves como un cartero est&aacute conduciendo un coche","{""Q0"":4}","trial","22499","survey-likert","52","276799","0.0-5.0-0.41","15","1","2022-11-29 21:24:44","2df368f4e41f066fd1c82c297b4a1108","189.190.63.83","Mozilla/5.0 (Windows NT 10.0; Win64; x64) AppleWebKit/537.36 (KHTML, like Gecko) Chrome/107.0.0.0 Safari/537.36","WebKit","Chrome","107.0.0.0","Windows","10.0","[0]","","32","4",""
"9511","You drop a bowling ball on glasses <br> T&uacute tiras una bola de boliche a unas gafas","{""Q0"":4}","trial","22499","survey-likert","53","286315","0.0-5.0-0.42","15","1","2022-11-29 21:24:44","2df368f4e41f066fd1c82c297b4a1108","189.190.63.83","Mozilla/5.0 (Windows NT 10.0; Win64; x64) AppleWebKit/537.36 (KHTML, like Gecko) Chrome/107.0.0.0 Safari/537.36","WebKit","Chrome","107.0.0.0","Windows","10.0","[0]","","9","4",""
"8198","You see how a musician is playing a guitar <br> T&uacute ves como un m&uacutesico est&aacute tocando la guitarra","{""Q0"":4}","trial","22499","survey-likert","54","294518","0.0-5.0-0.43","15","1","2022-11-29 21:24:44","2df368f4e41f066fd1c82c297b4a1108","189.190.63.83","Mozilla/5.0 (Windows NT 10.0; Win64; x64) AppleWebKit/537.36 (KHTML, like Gecko) Chrome/107.0.0.0 Safari/537.36","WebKit","Chrome","107.0.0.0","Windows","10.0","[0]","","27","4",""
"2984","You see how a cook is taking a knife <br> T&uacute ves como un cocinero est&aacute agarrando un cuchillo","{""Q0"":4}","trial","22499","survey-likert","55","297507","0.0-5.0-0.44","15","1","2022-11-29 21:24:44","2df368f4e41f066fd1c82c297b4a1108","189.190.63.83","Mozilla/5.0 (Windows NT 10.0; Win64; x64) AppleWebKit/537.36 (KHTML, like Gecko) Chrome/107.0.0.0 Safari/537.36","WebKit","Chrome","107.0.0.0","Windows","10.0","[0]","","71","4",""
"3258","You see how an old man is hammering a nail <br> T&uacute ves como un hombre anciano est&aacute martillando un clavo","{""Q0"":4}","trial","22499","survey-likert","56","300769","0.0-5.0-0.45","15","1","2022-11-29 21:24:44","2df368f4e41f066fd1c82c297b4a1108","189.190.63.83","Mozilla/5.0 (Windows NT 10.0; Win64; x64) AppleWebKit/537.36 (KHTML, like Gecko) Chrome/107.0.0.0 Safari/537.36","WebKit","Chrome","107.0.0.0","Windows","10.0","[0]","","29","4",""
"3008","You see how a pilot is reading a book <br> T&uacute ves como un piloto est&aacute leyendo un libro","{""Q0"":4}","trial","22499","survey-likert","57","303782","0.0-5.0-0.46","15","1","2022-11-29 21:24:44","2df368f4e41f066fd1c82c297b4a1108","189.190.63.83","Mozilla/5.0 (Windows NT 10.0; Win64; x64) AppleWebKit/537.36 (KHTML, like Gecko) Chrome/107.0.0.0 Safari/537.36","WebKit","Chrome","107.0.0.0","Windows","10.0","[0]","","61","4",""
"3167","You drop a cushion on the magazine <br> T&uacute tiras un coj&iacuten a la revista","{""Q0"":4}","trial","22499","survey-likert","58","306954","0.0-5.0-0.47","15","1","2022-11-29 21:24:44","2df368f4e41f066fd1c82c297b4a1108","189.190.63.83","Mozilla/5.0 (Windows NT 10.0; Win64; x64) AppleWebKit/537.36 (KHTML, like Gecko) Chrome/107.0.0.0 Safari/537.36","WebKit","Chrome","107.0.0.0","Windows","10.0","[0]","","38","4",""
"3131","You drop a bowling ball on a wine glass <br> T&uacute tiras una bola de boliche a una copa de vino","{""Q0"":4}","trial","22499","survey-likert","59","310089","0.0-5.0-0.48","15","1","2022-11-29 21:24:44","2df368f4e41f066fd1c82c297b4a1108","189.190.63.83","Mozilla/5.0 (Windows NT 10.0; Win64; x64) AppleWebKit/537.36 (KHTML, like Gecko) Chrome/107.0.0.0 Safari/537.36","WebKit","Chrome","107.0.0.0","Windows","10.0","[0]","","5","4",""
"2794","You see how a doctor is taking a stethoscope <br> T&uacute ves como un doctor est&aacute agarrando un estetoscopio","{""Q0"":4}","trial","22499","survey-likert","60","312887","0.0-5.0-0.49","15","1","2022-11-29 21:24:44","2df368f4e41f066fd1c82c297b4a1108","189.190.63.83","Mozilla/5.0 (Windows NT 10.0; Win64; x64) AppleWebKit/537.36 (KHTML, like Gecko) Chrome/107.0.0.0 Safari/537.36","WebKit","Chrome","107.0.0.0","Windows","10.0","[0]","","49","4",""
"2971","You drop a keyboard on the bed <br> T&uacute tiras un teclado a la cama","{""Q0"":4}","trial","22499","survey-likert","61","315864","0.0-5.0-0.50","15","1","2022-11-29 21:24:44","2df368f4e41f066fd1c82c297b4a1108","189.190.63.83","Mozilla/5.0 (Windows NT 10.0; Win64; x64) AppleWebKit/537.36 (KHTML, like Gecko) Chrome/107.0.0.0 Safari/537.36","WebKit","Chrome","107.0.0.0","Windows","10.0","[0]","","36","4",""
"5554","You drop a bowling ball on a chocolate muffin <br> T&uacute tiras una bola de boliche a una magdalena de chocolate","{""Q0"":4}","trial","22499","survey-likert","62","321424","0.0-5.0-0.51","15","1","2022-11-29 21:24:44","2df368f4e41f066fd1c82c297b4a1108","189.190.63.83","Mozilla/5.0 (Windows NT 10.0; Win64; x64) AppleWebKit/537.36 (KHTML, like Gecko) Chrome/107.0.0.0 Safari/537.36","WebKit","Chrome","107.0.0.0","Windows","10.0","[0]","","16","4",""
"5402","You drop a bowling ball on an egg flan <br> T&uacute tiras una bola de boliche a un flan","{""Q0"":4}","trial","22499","survey-likert","63","326831","0.0-5.0-0.52","15","1","2022-11-29 21:24:44","2df368f4e41f066fd1c82c297b4a1108","189.190.63.83","Mozilla/5.0 (Windows NT 10.0; Win64; x64) AppleWebKit/537.36 (KHTML, like Gecko) Chrome/107.0.0.0 Safari/537.36","WebKit","Chrome","107.0.0.0","Windows","10.0","[0]","","7","4",""
"3774","You see how an actress is taking a microphone <br> T&uacute ves como una actriz est&aacute agarrando el micr&oacutefono","{""Q0"":4}","trial","22499","survey-likert","64","330609","0.0-5.0-0.53","15","1","2022-11-29 21:24:44","2df368f4e41f066fd1c82c297b4a1108","189.190.63.83","Mozilla/5.0 (Windows NT 10.0; Win64; x64) AppleWebKit/537.36 (KHTML, like Gecko) Chrome/107.0.0.0 Safari/537.36","WebKit","Chrome","107.0.0.0","Windows","10.0","[0]","","51","4",""
"5920","You see how a photographer is taking a photo of a lion <br> T&uacute ves como un fot&oacutegrafo est&aacute tomando una foto de un le&oacuten","{""Q0"":4}","trial","22499","survey-likert","65","336534","0.0-5.0-0.54","15","1","2022-11-29 21:24:44","2df368f4e41f066fd1c82c297b4a1108","189.190.63.83","Mozilla/5.0 (Windows NT 10.0; Win64; x64) AppleWebKit/537.36 (KHTML, like Gecko) Chrome/107.0.0.0 Safari/537.36","WebKit","Chrome","107.0.0.0","Windows","10.0","[0]","","72","4",""
"3777","You drop a fork on the plate <br> T&uacute tiras un tenedor al plato","{""Q0"":4}","trial","22499","survey-likert","66","340316","0.0-5.0-0.55","15","1","2022-11-29 21:24:44","2df368f4e41f066fd1c82c297b4a1108","189.190.63.83","Mozilla/5.0 (Windows NT 10.0; Win64; x64) AppleWebKit/537.36 (KHTML, like Gecko) Chrome/107.0.0.0 Safari/537.36","WebKit","Chrome","107.0.0.0","Windows","10.0","[0]","","26","4",""
"3744","You see how a nurse is taking a syringe <br> T&uacute ves como una enfermera est&aacute agarrando una jeringuilla","{""Q0"":4}","trial","22499","survey-likert","67","344065","0.0-5.0-0.56","15","1","2022-11-29 21:24:44","2df368f4e41f066fd1c82c297b4a1108","189.190.63.83","Mozilla/5.0 (Windows NT 10.0; Win64; x64) AppleWebKit/537.36 (KHTML, like Gecko) Chrome/107.0.0.0 Safari/537.36","WebKit","Chrome","107.0.0.0","Windows","10.0","[0]","","48","4",""
"4442","You drop a bowling ball on an egg <br> T&uacute tiras una bola de boliche a un huevo","{""Q0"":4}","trial","22499","survey-likert","68","348512","0.0-5.0-0.57","15","1","2022-11-29 21:24:44","2df368f4e41f066fd1c82c297b4a1108","189.190.63.83","Mozilla/5.0 (Windows NT 10.0; Win64; x64) AppleWebKit/537.36 (KHTML, like Gecko) Chrome/107.0.0.0 Safari/537.36","WebKit","Chrome","107.0.0.0","Windows","10.0","[0]","","6","4",""
"3568","You see how a cat is drinking water from a bowl <br> T&uacute ves como un gato est&aacute bebiendo agua de un cuenco","{""Q0"":4}","trial","22499","survey-likert","69","352086","0.0-5.0-0.58","15","1","2022-11-29 21:24:44","2df368f4e41f066fd1c82c297b4a1108","189.190.63.83","Mozilla/5.0 (Windows NT 10.0; Win64; x64) AppleWebKit/537.36 (KHTML, like Gecko) Chrome/107.0.0.0 Safari/537.36","WebKit","Chrome","107.0.0.0","Windows","10.0","[0]","","28","4",""
"13726","You see how a man is boiling potatoes <br> T&uacute ves a un hombre est&aacute hirviendo papas","{""Q0"":3}","trial","22499","survey-likert","70","365816","0.0-5.0-0.59","15","1","2022-11-29 21:24:44","2df368f4e41f066fd1c82c297b4a1108","189.190.63.83","Mozilla/5.0 (Windows NT 10.0; Win64; x64) AppleWebKit/537.36 (KHTML, like Gecko) Chrome/107.0.0.0 Safari/537.36","WebKit","Chrome","107.0.0.0","Windows","10.0","[0]","","46","3",""
"9067","You see how an owl is sitting on the branch <br> T&uacute ves como un b&uacuteho est&aacute reposando en una rama","{""Q0"":4}","trial","22499","survey-likert","71","374888","0.0-5.0-0.60","15","1","2022-11-29 21:24:44","2df368f4e41f066fd1c82c297b4a1108","189.190.63.83","Mozilla/5.0 (Windows NT 10.0; Win64; x64) AppleWebKit/537.36 (KHTML, like Gecko) Chrome/107.0.0.0 Safari/537.36","WebKit","Chrome","107.0.0.0","Windows","10.0","[0]","","69","4",""
"6424","You drop a bowling ball on an empty can of beer <br> T&uacute tiras una bola de boliche a una lata de cerveza vac&iacutea","{""Q0"":4}","trial","22499","survey-likert","72","381318","0.0-5.0-0.61","15","1","2022-11-29 21:24:44","2df368f4e41f066fd1c82c297b4a1108","189.190.63.83","Mozilla/5.0 (Windows NT 10.0; Win64; x64) AppleWebKit/537.36 (KHTML, like Gecko) Chrome/107.0.0.0 Safari/537.36","WebKit","Chrome","107.0.0.0","Windows","10.0","[0]","","3","4",""
"6812","You see how a giraffe is playing with a zebra <br> T&uacute ves como una jirafa est&aacute jugando con una cebra","{""Q0"":4}","trial","22499","survey-likert","73","388135","0.0-5.0-0.62","15","1","2022-11-29 21:24:44","2df368f4e41f066fd1c82c297b4a1108","189.190.63.83","Mozilla/5.0 (Windows NT 10.0; Win64; x64) AppleWebKit/537.36 (KHTML, like Gecko) Chrome/107.0.0.0 Safari/537.36","WebKit","Chrome","107.0.0.0","Windows","10.0","[0]","","65","4",""
"9377","You drop a cabbage on the table <br> T&uacute tiras una col a la mesa","{""Q0"":4}","trial","22499","survey-likert","74","397518","0.0-5.0-0.63","15","1","2022-11-29 21:24:44","2df368f4e41f066fd1c82c297b4a1108","189.190.63.83","Mozilla/5.0 (Windows NT 10.0; Win64; x64) AppleWebKit/537.36 (KHTML, like Gecko) Chrome/107.0.0.0 Safari/537.36","WebKit","Chrome","107.0.0.0","Windows","10.0","[0]","","35","4",""
"4866","You drop a bowling ball on a chocolate ice-cream <br> T&uacute tiras una bola de boliche a un helado de chocolate","{""Q0"":4}","trial","22499","survey-likert","75","402389","0.0-5.0-0.64","15","1","2022-11-29 21:24:44","2df368f4e41f066fd1c82c297b4a1108","189.190.63.83","Mozilla/5.0 (Windows NT 10.0; Win64; x64) AppleWebKit/537.36 (KHTML, like Gecko) Chrome/107.0.0.0 Safari/537.36","WebKit","Chrome","107.0.0.0","Windows","10.0","[0]","","11","4",""
"3205","You drop a bowling ball on a mirror <br> T&uacute tiras una bola de boliche a un espejo","{""Q0"":4}","trial","22499","survey-likert","76","405600","0.0-5.0-0.65","15","1","2022-11-29 21:24:44","2df368f4e41f066fd1c82c297b4a1108","189.190.63.83","Mozilla/5.0 (Windows NT 10.0; Win64; x64) AppleWebKit/537.36 (KHTML, like Gecko) Chrome/107.0.0.0 Safari/537.36","WebKit","Chrome","107.0.0.0","Windows","10.0","[0]","","15","4",""
"4252","You see how a panda is resting on a tree <br> T&uacute ves como un panda est&aacute descansando en un &aacuterbol","{""Q0"":4}","trial","22499","survey-likert","77","409857","0.0-5.0-0.66","15","1","2022-11-29 21:24:44","2df368f4e41f066fd1c82c297b4a1108","189.190.63.83","Mozilla/5.0 (Windows NT 10.0; Win64; x64) AppleWebKit/537.36 (KHTML, like Gecko) Chrome/107.0.0.0 Safari/537.36","WebKit","Chrome","107.0.0.0","Windows","10.0","[0]","","57","4",""
"7993","You drop a bowling ball on a porcelain figure <br> T&uacute tiras una bola de boliche a una figura de porcelana","{""Q0"":4}","trial","22499","survey-likert","78","417855","0.0-5.0-0.67","15","1","2022-11-29 21:24:44","2df368f4e41f066fd1c82c297b4a1108","189.190.63.83","Mozilla/5.0 (Windows NT 10.0; Win64; x64) AppleWebKit/537.36 (KHTML, like Gecko) Chrome/107.0.0.0 Safari/537.36","WebKit","Chrome","107.0.0.0","Windows","10.0","[0]","","1","4",""
"3049","You drop a bowling ball on an iPAD <br> T&uacute tiras una bola de boliche a un iPad","{""Q0"":4}","trial","22499","survey-likert","79","420909","0.0-5.0-0.68","15","1","2022-11-29 21:24:44","2df368f4e41f066fd1c82c297b4a1108","189.190.63.83","Mozilla/5.0 (Windows NT 10.0; Win64; x64) AppleWebKit/537.36 (KHTML, like Gecko) Chrome/107.0.0.0 Safari/537.36","WebKit","Chrome","107.0.0.0","Windows","10.0","[0]","","12","4",""
"5792","You drop a bowling ball on a tile <br> T&uacute tiras una bola de boliche a una baldosa","{""Q0"":4}","trial","22499","survey-likert","80","426706","0.0-5.0-0.69","15","1","2022-11-29 21:24:44","2df368f4e41f066fd1c82c297b4a1108","189.190.63.83","Mozilla/5.0 (Windows NT 10.0; Win64; x64) AppleWebKit/537.36 (KHTML, like Gecko) Chrome/107.0.0.0 Safari/537.36","WebKit","Chrome","107.0.0.0","Windows","10.0","[0]","","22","4",""
"3529","You drop a bowling ball on a piece of sushi <br> T&uacute tiras una bola de boliche a un pedazo de sushi","{""Q0"":4}","trial","22499","survey-likert","81","430240","0.0-5.0-0.70","15","1","2022-11-29 21:24:44","2df368f4e41f066fd1c82c297b4a1108","189.190.63.83","Mozilla/5.0 (Windows NT 10.0; Win64; x64) AppleWebKit/537.36 (KHTML, like Gecko) Chrome/107.0.0.0 Safari/537.36","WebKit","Chrome","107.0.0.0","Windows","10.0","[0]","","21","4",""
"4493","You see how a butterfly is sitting on a flower <br> T&uacute ves como una mariposa est&aacute reposando en una flor","{""Q0"":4}","trial","22499","survey-likert","82","434738","0.0-5.0-0.71","15","1","2022-11-29 21:24:44","2df368f4e41f066fd1c82c297b4a1108","189.190.63.83","Mozilla/5.0 (Windows NT 10.0; Win64; x64) AppleWebKit/537.36 (KHTML, like Gecko) Chrome/107.0.0.0 Safari/537.36","WebKit","Chrome","107.0.0.0","Windows","10.0","[0]","","59","4",""
"3317","
    <p style=""font-size:20px;""> You have completed the experiment portion! </p>
    <p style=""font-size:20px;""> Before you are done, we would like you to answer some basic demographic questions. </p>
    <p style=""font-size:20px;""> Note that your answers to these questions will not affect your compensation/credit. </p>
    <p style=""font-size:20px;""> Click the button below to continue.</p>
    ","0","demo","22499","html-button-response","83","438062","0.0-6.0","15","1","2022-11-29 21:24:44","2df368f4e41f066fd1c82c297b4a1108","189.190.63.83","Mozilla/5.0 (Windows NT 10.0; Win64; x64) AppleWebKit/537.36 (KHTML, like Gecko) Chrome/107.0.0.0 Safari/537.36","WebKit","Chrome","107.0.0.0","Windows","10.0","","","","",""
"32510","","{""Age"":""32"",""Gender"":""Man"",""Education"":""26""}","demo","22499","survey-text","84","470576","0.0-7.0-0.0","15","1","2022-11-29 21:24:44","2df368f4e41f066fd1c82c297b4a1108","189.190.63.83","Mozilla/5.0 (Windows NT 10.0; Win64; x64) AppleWebKit/537.36 (KHTML, like Gecko) Chrome/107.0.0.0 Safari/537.36","WebKit","Chrome","107.0.0.0","Windows","10.0","","","","",""
"5576","","{""Race"":[""Other""]}","demo","22499","survey-multi-select","85","476156","0.0-7.0-1.0","15","1","2022-11-29 21:24:44","2df368f4e41f066fd1c82c297b4a1108","189.190.63.83","Mozilla/5.0 (Windows NT 10.0; Win64; x64) AppleWebKit/537.36 (KHTML, like Gecko) Chrome/107.0.0.0 Safari/537.36","WebKit","Chrome","107.0.0.0","Windows","10.0","[0]","","","",""
"5132","","{""Latino"":""Yes"",""Alert"":""Morning""}","demo","22499","survey-multi-choice","86","481295","0.0-7.0-2.0","15","1","2022-11-29 21:24:44","2df368f4e41f066fd1c82c297b4a1108","189.190.63.83","Mozilla/5.0 (Windows NT 10.0; Win64; x64) AppleWebKit/537.36 (KHTML, like Gecko) Chrome/107.0.0.0 Safari/537.36","WebKit","Chrome","107.0.0.0","Windows","10.0","[0,1]","","","",""
"2501","","{""Q0"":""""}","demo","22499","survey-text","87","483803","0.0-7.0-3.0","15","1","2022-11-29 21:24:44","2df368f4e41f066fd1c82c297b4a1108","189.190.63.83","Mozilla/5.0 (Windows NT 10.0; Win64; x64) AppleWebKit/537.36 (KHTML, like Gecko) Chrome/107.0.0.0 Safari/537.36","WebKit","Chrome","107.0.0.0","Windows","10.0","","","","",""
"6447","<p>Thank you for participating! </p><strong>Your completion code is: CXEJB7NH. Please copy-paste this code and submit it on Prolific.</strong><p>Click <a href=""https://drive.google.com/file/d/1c70cdHFlc0AaR6RujLWLJwWkv1RbHQJY/view?usp=sharing"" target=""_blank"" rel=""noopener noreferrer"">here</a> to access the debriefing form and know more about our research. <p> Please click the button below to finish the experiment and save your data.</p> <p> IMPORTANT: Please <strong>do not leave this page </strong> without clicking the button below.</p> <p> You may close the tab/window after you click the button below.","0","","","html-button-response","88","490252","0.0-8.0","15","1","2022-11-29 21:24:44","2df368f4e41f066fd1c82c297b4a1108","189.190.63.83","Mozilla/5.0 (Windows NT 10.0; Win64; x64) AppleWebKit/537.36 (KHTML, like Gecko) Chrome/107.0.0.0 Safari/537.36","WebKit","Chrome","107.0.0.0","Windows","10.0","","","","",""
