"rt","stimulus","response","typeoftrial","subject","trial_type","trial_index","time_elapsed","internal_node_id","run_id","condition","recorded_at","source_code_version","ip","user_agent","device","browser","browser_version","platform","platform_version","question_order","practice_rating","sentence_num","rating","Experiment"
"10621","
        <p style=""font-size:20px;""> Welcome! Thank you for your interest in our study. </p>
        <p style=""font-size:20px;""> This study is being conducted by researchers at Bowdoin College.</p>
        <p style=""font-size:20px;""> In this experiment, you will be asked to rate the accuracy of English and Spanish translations.</p>
        <p style=""font-size:20px;""> The entire experiment should not last more than 20 minutes. You will be paid $3 USD for your participation. </p>
        <p style=""font-size:20px;""> Please click <a href = ""https://drive.google.com/file/d/1L92a02eEKCpaAEipmqDcBCDR7rsarqFE/view?usp=sharing"" target = ""_blank"">here</a> to read the full consent form. </p>
        <p style=""font-size:20px;""> If you agree to participate, please click the button below to continue to experiment instructions.</p>
        ","0","consent","85132","html-button-response","0","10623","0.0-0.0","12","1","2022-11-29 21:24:42","2df368f4e41f066fd1c82c297b4a1108","187.254.101.77","Mozilla/5.0 (Windows NT 10.0; Win64; x64) AppleWebKit/537.36 (KHTML, like Gecko) Chrome/107.0.0.0 Safari/537.36","WebKit","Chrome","107.0.0.0","Windows","10.0","","","","",""
"4395","","{""ID"":""60afddbaab9ad3e949ac0114""}","ID","85132","survey-text","1","15023","0.0-1.0","12","1","2022-11-29 21:24:42","2df368f4e41f066fd1c82c297b4a1108","187.254.101.77","Mozilla/5.0 (Windows NT 10.0; Win64; x64) AppleWebKit/537.36 (KHTML, like Gecko) Chrome/107.0.0.0 Safari/537.36","WebKit","Chrome","107.0.0.0","Windows","10.0","","","","",""
"4880","
        <p style=""font-size:20px;""> You are about to begin the practice test. </p>
        <p style=""font-size:20px;""> On each trial, you will see a sentence in English and its corresponding Spanish translation. </p>
        <p style=""font-size:20px;""> You will rate the accuracy of the translation on a scale from ""Not at all accurate"" to ""Very accurate."" </p>
        <p style=""font-size:20px;""> If you rate the translation as ""Somewhat innaccurate"" or ""Not at all accurate,"" you will be asked to provide your own translation or a reason why the translation is inaccurate. </p>
        <p style=""font-size:20px;""> Click the button below to continue to the practice session.</p>","0","instructions","85132","html-button-response","2","19904","0.0-2.0","12","1","2022-11-29 21:24:42","2df368f4e41f066fd1c82c297b4a1108","187.254.101.77","Mozilla/5.0 (Windows NT 10.0; Win64; x64) AppleWebKit/537.36 (KHTML, like Gecko) Chrome/107.0.0.0 Safari/537.36","WebKit","Chrome","107.0.0.0","Windows","10.0","","","","",""
"14085","You see how a teacher is drawing a picture <br> T&uacute ves como un maestro pinta una foto","{""Q0"":3}","practice","85132","survey-likert","3","33991","0.0-3.0-0.0","12","1","2022-11-29 21:24:42","2df368f4e41f066fd1c82c297b4a1108","187.254.101.77","Mozilla/5.0 (Windows NT 10.0; Win64; x64) AppleWebKit/537.36 (KHTML, like Gecko) Chrome/107.0.0.0 Safari/537.36","WebKit","Chrome","107.0.0.0","Windows","10.0","[0]","3","","",""
"11825","You drop a rock on a phone <br> T&uacute tiras una piedra a un tel&eacutefono","{""Q0"":3}","practice","85132","survey-likert","4","45819","0.0-3.0-0.1","12","1","2022-11-29 21:24:42","2df368f4e41f066fd1c82c297b4a1108","187.254.101.77","Mozilla/5.0 (Windows NT 10.0; Win64; x64) AppleWebKit/537.36 (KHTML, like Gecko) Chrome/107.0.0.0 Safari/537.36","WebKit","Chrome","107.0.0.0","Windows","10.0","[0]","3","","",""
"15651","You drop a bowling ball on a mircrowave <br> T&uacute tiras una bola de boliche a un horno","{""Q0"":2}","practice","85132","survey-likert","5","61473","0.0-3.0-0.2","12","1","2022-11-29 21:24:42","2df368f4e41f066fd1c82c297b4a1108","187.254.101.77","Mozilla/5.0 (Windows NT 10.0; Win64; x64) AppleWebKit/537.36 (KHTML, like Gecko) Chrome/107.0.0.0 Safari/537.36","WebKit","Chrome","107.0.0.0","Windows","10.0","[0]","2","","",""
"5679","You see how a tiger is playing with a goose <br> T&uacute ves como un le&oacuten come una pizza","{""Q0"":1}","practice","85132","survey-likert","6","67154","0.0-3.0-0.3","12","1","2022-11-29 21:24:42","2df368f4e41f066fd1c82c297b4a1108","187.254.101.77","Mozilla/5.0 (Windows NT 10.0; Win64; x64) AppleWebKit/537.36 (KHTML, like Gecko) Chrome/107.0.0.0 Safari/537.36","WebKit","Chrome","107.0.0.0","Windows","10.0","[0]","1","","",""
"42148","You see how a tiger is playing with a goose <br> T&uacute ves como un le&oacuten come una pizza","{""Q0"":""el leon juega con el ganso""}","practice_low_rate","85132","survey-text","7","109307","0.0-3.0-1.3-0.3","12","1","2022-11-29 21:24:42","2df368f4e41f066fd1c82c297b4a1108","187.254.101.77","Mozilla/5.0 (Windows NT 10.0; Win64; x64) AppleWebKit/537.36 (KHTML, like Gecko) Chrome/107.0.0.0 Safari/537.36","WebKit","Chrome","107.0.0.0","Windows","10.0","","","5","",""
"8511","You see how an artist is running <br> T&uacute ves como un artista est&aacute corriendo","{""Q0"":4}","practice","85132","survey-likert","8","117819","0.0-3.0-0.4","12","1","2022-11-29 21:24:42","2df368f4e41f066fd1c82c297b4a1108","187.254.101.77","Mozilla/5.0 (Windows NT 10.0; Win64; x64) AppleWebKit/537.36 (KHTML, like Gecko) Chrome/107.0.0.0 Safari/537.36","WebKit","Chrome","107.0.0.0","Windows","10.0","[0]","4","","",""
"6741","You see how a duck is playing with a pumpkin <br> T&uacute ves como un pato est&aacute jugando con una calabaza","{""Q0"":4}","practice","85132","survey-likert","9","124563","0.0-3.0-0.5","12","1","2022-11-29 21:24:42","2df368f4e41f066fd1c82c297b4a1108","187.254.101.77","Mozilla/5.0 (Windows NT 10.0; Win64; x64) AppleWebKit/537.36 (KHTML, like Gecko) Chrome/107.0.0.0 Safari/537.36","WebKit","Chrome","107.0.0.0","Windows","10.0","[0]","4","","",""
"1629","<p style=""font-size:20px;"">You have now completed the practice session! </p>
        <p style=""font-size:20px;"">You will now move on to the main experiment. </p>
        <p style=""font-size:20px;"">Please click the button below to continue. </p>","0","movetoexp","85132","html-button-response","10","126194","0.0-4.0","12","1","2022-11-29 21:24:42","2df368f4e41f066fd1c82c297b4a1108","187.254.101.77","Mozilla/5.0 (Windows NT 10.0; Win64; x64) AppleWebKit/537.36 (KHTML, like Gecko) Chrome/107.0.0.0 Safari/537.36","WebKit","Chrome","107.0.0.0","Windows","10.0","","","","",""
"10181","You drop a bowling ball on a chocolate ice-cream <br> T&uacute tiras una bola de boliche a un helado de chocolate","{""Q0"":4}","trial","85132","survey-likert","11","136377","0.0-5.0-0.0","12","1","2022-11-29 21:24:42","2df368f4e41f066fd1c82c297b4a1108","187.254.101.77","Mozilla/5.0 (Windows NT 10.0; Win64; x64) AppleWebKit/537.36 (KHTML, like Gecko) Chrome/107.0.0.0 Safari/537.36","WebKit","Chrome","107.0.0.0","Windows","10.0","[0]","","11","4",""
"4637","You see how a boy is peeling a banana <br> T&uacute ves como un ni&ntildeo est&aacute pelando una banana","{""Q0"":4}","trial","85132","survey-likert","12","141017","0.0-5.0-0.1","12","1","2022-11-29 21:24:42","2df368f4e41f066fd1c82c297b4a1108","187.254.101.77","Mozilla/5.0 (Windows NT 10.0; Win64; x64) AppleWebKit/537.36 (KHTML, like Gecko) Chrome/107.0.0.0 Safari/537.36","WebKit","Chrome","107.0.0.0","Windows","10.0","[0]","","30","4",""
"5721","You drop a watch on the laptop <br> T&uacute tiras un reloj al port&aacutetil","{""Q0"":2}","trial","85132","survey-likert","13","146741","0.0-5.0-0.2","12","1","2022-11-29 21:24:42","2df368f4e41f066fd1c82c297b4a1108","187.254.101.77","Mozilla/5.0 (Windows NT 10.0; Win64; x64) AppleWebKit/537.36 (KHTML, like Gecko) Chrome/107.0.0.0 Safari/537.36","WebKit","Chrome","107.0.0.0","Windows","10.0","[0]","","37","2",""
"7455","You see how a nurse is taking a syringe <br> T&uacute ves como una enfermera est&aacute agarrando una jeringuilla","{""Q0"":2}","trial","85132","survey-likert","14","154199","0.0-5.0-0.3","12","1","2022-11-29 21:24:42","2df368f4e41f066fd1c82c297b4a1108","187.254.101.77","Mozilla/5.0 (Windows NT 10.0; Win64; x64) AppleWebKit/537.36 (KHTML, like Gecko) Chrome/107.0.0.0 Safari/537.36","WebKit","Chrome","107.0.0.0","Windows","10.0","[0]","","48","2",""
"4809","You drop a thermometer on the box <br> T&uacute tiras un term&oacutemetro a la caja","{""Q0"":4}","trial","85132","survey-likert","15","159011","0.0-5.0-0.4","12","1","2022-11-29 21:24:42","2df368f4e41f066fd1c82c297b4a1108","187.254.101.77","Mozilla/5.0 (Windows NT 10.0; Win64; x64) AppleWebKit/537.36 (KHTML, like Gecko) Chrome/107.0.0.0 Safari/537.36","WebKit","Chrome","107.0.0.0","Windows","10.0","[0]","","70","4",""
"6693","You see how a cook is taking a knife <br> T&uacute ves como un cocinero est&aacute agarrando un cuchillo","{""Q0"":4}","trial","85132","survey-likert","16","165707","0.0-5.0-0.5","12","1","2022-11-29 21:24:42","2df368f4e41f066fd1c82c297b4a1108","187.254.101.77","Mozilla/5.0 (Windows NT 10.0; Win64; x64) AppleWebKit/537.36 (KHTML, like Gecko) Chrome/107.0.0.0 Safari/537.36","WebKit","Chrome","107.0.0.0","Windows","10.0","[0]","","71","4",""
"7155","You drop a bowling ball on a strawberry <br> T&uacute tiras una bola de boliche a una fresa","{""Q0"":4}","trial","85132","survey-likert","17","172864","0.0-5.0-0.6","12","1","2022-11-29 21:24:42","2df368f4e41f066fd1c82c297b4a1108","187.254.101.77","Mozilla/5.0 (Windows NT 10.0; Win64; x64) AppleWebKit/537.36 (KHTML, like Gecko) Chrome/107.0.0.0 Safari/537.36","WebKit","Chrome","107.0.0.0","Windows","10.0","[0]","","20","4",""
"4485","You drop a bowling ball on a porcelain figure <br> T&uacute tiras una bola de boliche a una figura de porcelana","{""Q0"":4}","trial","85132","survey-likert","18","177353","0.0-5.0-0.7","12","1","2022-11-29 21:24:42","2df368f4e41f066fd1c82c297b4a1108","187.254.101.77","Mozilla/5.0 (Windows NT 10.0; Win64; x64) AppleWebKit/537.36 (KHTML, like Gecko) Chrome/107.0.0.0 Safari/537.36","WebKit","Chrome","107.0.0.0","Windows","10.0","[0]","","1","4",""
"8917","You see how a doctor is taking a stethoscope <br> T&uacute ves como un doctor est&aacute agarrando un estetoscopio","{""Q0"":4}","trial","85132","survey-likert","19","186273","0.0-5.0-0.8","12","1","2022-11-29 21:24:42","2df368f4e41f066fd1c82c297b4a1108","187.254.101.77","Mozilla/5.0 (Windows NT 10.0; Win64; x64) AppleWebKit/537.36 (KHTML, like Gecko) Chrome/107.0.0.0 Safari/537.36","WebKit","Chrome","107.0.0.0","Windows","10.0","[0]","","49","4",""
"11370","You see how a woman is taking money out of a wallet <br> T&uacute ves como una mujer est&aacute sacando dinero de su billetera","{""Q0"":1}","trial","85132","survey-likert","20","197645","0.0-5.0-0.9","12","1","2022-11-29 21:24:42","2df368f4e41f066fd1c82c297b4a1108","187.254.101.77","Mozilla/5.0 (Windows NT 10.0; Win64; x64) AppleWebKit/537.36 (KHTML, like Gecko) Chrome/107.0.0.0 Safari/537.36","WebKit","Chrome","107.0.0.0","Windows","10.0","[0]","","44","1",""
"6430","You see how a woman is taking money out of a wallet <br> T&uacute ves como una mujer est&aacute sacando dinero de su billetera","{""Q0"":""Tú ves como una mujer está sacando dinero de UNA billetera""}","low_rate","85132","survey-text","21","204079","0.0-5.0-1.9-0.9","12","1","2022-11-29 21:24:42","2df368f4e41f066fd1c82c297b4a1108","187.254.101.77","Mozilla/5.0 (Windows NT 10.0; Win64; x64) AppleWebKit/537.36 (KHTML, like Gecko) Chrome/107.0.0.0 Safari/537.36","WebKit","Chrome","107.0.0.0","Windows","10.0","","","44","",""
"5383","You drop a bowling ball on an iPAD <br> T&uacute tiras una bola de boliche a un iPad","{""Q0"":3}","trial","85132","survey-likert","22","209463","0.0-5.0-0.10","12","1","2022-11-29 21:24:42","2df368f4e41f066fd1c82c297b4a1108","187.254.101.77","Mozilla/5.0 (Windows NT 10.0; Win64; x64) AppleWebKit/537.36 (KHTML, like Gecko) Chrome/107.0.0.0 Safari/537.36","WebKit","Chrome","107.0.0.0","Windows","10.0","[0]","","12","3",""
"5757","You drop a pencil on the shoe <br> T&uacute tiras un l&aacutepiz al zapato","{""Q0"":3}","trial","85132","survey-likert","23","215223","0.0-5.0-0.11","12","1","2022-11-29 21:24:42","2df368f4e41f066fd1c82c297b4a1108","187.254.101.77","Mozilla/5.0 (Windows NT 10.0; Win64; x64) AppleWebKit/537.36 (KHTML, like Gecko) Chrome/107.0.0.0 Safari/537.36","WebKit","Chrome","107.0.0.0","Windows","10.0","[0]","","40","3",""
"5315","You drop a bowling ball on a paper cup <br> T&uacute tiras una bola de boliche a un vaso de papel","{""Q0"":3}","trial","85132","survey-likert","24","220541","0.0-5.0-0.12","12","1","2022-11-29 21:24:42","2df368f4e41f066fd1c82c297b4a1108","187.254.101.77","Mozilla/5.0 (Windows NT 10.0; Win64; x64) AppleWebKit/537.36 (KHTML, like Gecko) Chrome/107.0.0.0 Safari/537.36","WebKit","Chrome","107.0.0.0","Windows","10.0","[0]","","24","3",""
"7950","You drop a bowling ball on a rice cake <br> T&uacute tiras una bola de boliche a una tortita de arroz","{""Q0"":4}","trial","85132","survey-likert","25","228495","0.0-5.0-0.13","12","1","2022-11-29 21:24:42","2df368f4e41f066fd1c82c297b4a1108","187.254.101.77","Mozilla/5.0 (Windows NT 10.0; Win64; x64) AppleWebKit/537.36 (KHTML, like Gecko) Chrome/107.0.0.0 Safari/537.36","WebKit","Chrome","107.0.0.0","Windows","10.0","[0]","","18","4",""
"8552","You see how a police officer is talking on the phone <br> T&uacute ves como un polic&iacutea est&aacute hablando por el tel&eacutefono","{""Q0"":4}","trial","85132","survey-likert","26","237049","0.0-5.0-0.14","12","1","2022-11-29 21:24:42","2df368f4e41f066fd1c82c297b4a1108","187.254.101.77","Mozilla/5.0 (Windows NT 10.0; Win64; x64) AppleWebKit/537.36 (KHTML, like Gecko) Chrome/107.0.0.0 Safari/537.36","WebKit","Chrome","107.0.0.0","Windows","10.0","[0]","","62","4",""
"6123","You drop a bowling ball on an egg <br> T&uacute tiras una bola de boliche a un huevo","{""Q0"":3}","trial","85132","survey-likert","27","243174","0.0-5.0-0.15","12","1","2022-11-29 21:24:42","2df368f4e41f066fd1c82c297b4a1108","187.254.101.77","Mozilla/5.0 (Windows NT 10.0; Win64; x64) AppleWebKit/537.36 (KHTML, like Gecko) Chrome/107.0.0.0 Safari/537.36","WebKit","Chrome","107.0.0.0","Windows","10.0","[0]","","6","3",""
"5272","You see how a man is playing with a cat <br> T&uacute ves como un hombre est&aacute jugando con un gato","{""Q0"":3}","trial","85132","survey-likert","28","248449","0.0-5.0-0.16","12","1","2022-11-29 21:24:42","2df368f4e41f066fd1c82c297b4a1108","187.254.101.77","Mozilla/5.0 (Windows NT 10.0; Win64; x64) AppleWebKit/537.36 (KHTML, like Gecko) Chrome/107.0.0.0 Safari/537.36","WebKit","Chrome","107.0.0.0","Windows","10.0","[0]","","67","3",""
"6281","You see how a musician is playing a guitar <br> T&uacute ves como un m&uacutesico est&aacute tocando la guitarra","{""Q0"":3}","trial","85132","survey-likert","29","254732","0.0-5.0-0.17","12","1","2022-11-29 21:24:42","2df368f4e41f066fd1c82c297b4a1108","187.254.101.77","Mozilla/5.0 (Windows NT 10.0; Win64; x64) AppleWebKit/537.36 (KHTML, like Gecko) Chrome/107.0.0.0 Safari/537.36","WebKit","Chrome","107.0.0.0","Windows","10.0","[0]","","27","3",""
"7400","You drop a bowling ball on a chocolate muffin <br> T&uacute tiras una bola de boliche a una magdalena de chocolate","{""Q0"":2}","trial","85132","survey-likert","30","262135","0.0-5.0-0.18","12","1","2022-11-29 21:24:42","2df368f4e41f066fd1c82c297b4a1108","187.254.101.77","Mozilla/5.0 (Windows NT 10.0; Win64; x64) AppleWebKit/537.36 (KHTML, like Gecko) Chrome/107.0.0.0 Safari/537.36","WebKit","Chrome","107.0.0.0","Windows","10.0","[0]","","16","2",""
"6037","You drop a remote on the rug <br> T&uacute tiras un control remoto a la alfombra","{""Q0"":4}","trial","85132","survey-likert","31","268174","0.0-5.0-0.19","12","1","2022-11-29 21:24:42","2df368f4e41f066fd1c82c297b4a1108","187.254.101.77","Mozilla/5.0 (Windows NT 10.0; Win64; x64) AppleWebKit/537.36 (KHTML, like Gecko) Chrome/107.0.0.0 Safari/537.36","WebKit","Chrome","107.0.0.0","Windows","10.0","[0]","","39","4",""
"5582","You drop a bowling ball on an empty can of beer <br> T&uacute tiras una bola de boliche a una lata de cerveza vac&iacutea","{""Q0"":4}","trial","85132","survey-likert","32","273759","0.0-5.0-0.20","12","1","2022-11-29 21:24:42","2df368f4e41f066fd1c82c297b4a1108","187.254.101.77","Mozilla/5.0 (Windows NT 10.0; Win64; x64) AppleWebKit/537.36 (KHTML, like Gecko) Chrome/107.0.0.0 Safari/537.36","WebKit","Chrome","107.0.0.0","Windows","10.0","[0]","","3","4",""
"5353","You see how a kitten is playing in the sandbox <br> T&uacute ves como un gatito est&aacute jugando en la caja de arena","{""Q0"":4}","trial","85132","survey-likert","33","279115","0.0-5.0-0.21","12","1","2022-11-29 21:24:42","2df368f4e41f066fd1c82c297b4a1108","187.254.101.77","Mozilla/5.0 (Windows NT 10.0; Win64; x64) AppleWebKit/537.36 (KHTML, like Gecko) Chrome/107.0.0.0 Safari/537.36","WebKit","Chrome","107.0.0.0","Windows","10.0","[0]","","52","4",""
"7609","You drop a cabbage on the table <br> T&uacute tiras una col a la mesa","{""Q0"":3}","trial","85132","survey-likert","34","286727","0.0-5.0-0.22","12","1","2022-11-29 21:24:42","2df368f4e41f066fd1c82c297b4a1108","187.254.101.77","Mozilla/5.0 (Windows NT 10.0; Win64; x64) AppleWebKit/537.36 (KHTML, like Gecko) Chrome/107.0.0.0 Safari/537.36","WebKit","Chrome","107.0.0.0","Windows","10.0","[0]","","35","3",""
"6926","You see how a panda is resting on a tree <br> T&uacute ves como un panda est&aacute descansando en un &aacuterbol","{""Q0"":4}","trial","85132","survey-likert","35","293657","0.0-5.0-0.23","12","1","2022-11-29 21:24:42","2df368f4e41f066fd1c82c297b4a1108","187.254.101.77","Mozilla/5.0 (Windows NT 10.0; Win64; x64) AppleWebKit/537.36 (KHTML, like Gecko) Chrome/107.0.0.0 Safari/537.36","WebKit","Chrome","107.0.0.0","Windows","10.0","[0]","","57","4",""
"7038","You see how an old man is hammering a nail <br> T&uacute ves como un hombre anciano est&aacute martillando un clavo","{""Q0"":4}","trial","85132","survey-likert","36","300698","0.0-5.0-0.24","12","1","2022-11-29 21:24:42","2df368f4e41f066fd1c82c297b4a1108","187.254.101.77","Mozilla/5.0 (Windows NT 10.0; Win64; x64) AppleWebKit/537.36 (KHTML, like Gecko) Chrome/107.0.0.0 Safari/537.36","WebKit","Chrome","107.0.0.0","Windows","10.0","[0]","","29","4",""
"5879","You see how a zebra is playing with a horse <br> T&uacute ves como una cebra est&aacute jugando con un caballo","{""Q0"":4}","trial","85132","survey-likert","37","306579","0.0-5.0-0.25","12","1","2022-11-29 21:24:42","2df368f4e41f066fd1c82c297b4a1108","187.254.101.77","Mozilla/5.0 (Windows NT 10.0; Win64; x64) AppleWebKit/537.36 (KHTML, like Gecko) Chrome/107.0.0.0 Safari/537.36","WebKit","Chrome","107.0.0.0","Windows","10.0","[0]","","66","4",""
"8317","You see how an actress is taking a microphone <br> T&uacute ves como una actriz est&aacute agarrando el micr&oacutefono","{""Q0"":1}","trial","85132","survey-likert","38","314899","0.0-5.0-0.26","12","1","2022-11-29 21:24:42","2df368f4e41f066fd1c82c297b4a1108","187.254.101.77","Mozilla/5.0 (Windows NT 10.0; Win64; x64) AppleWebKit/537.36 (KHTML, like Gecko) Chrome/107.0.0.0 Safari/537.36","WebKit","Chrome","107.0.0.0","Windows","10.0","[0]","","51","1",""
"5305","You see how an actress is taking a microphone <br> T&uacute ves como una actriz est&aacute agarrando el micr&oacutefono","{""Q0"":""Tú ves como una actriz está agarrando UN micrófono""}","low_rate","85132","survey-text","39","320209","0.0-5.0-1.26-0.26","12","1","2022-11-29 21:24:42","2df368f4e41f066fd1c82c297b4a1108","187.254.101.77","Mozilla/5.0 (Windows NT 10.0; Win64; x64) AppleWebKit/537.36 (KHTML, like Gecko) Chrome/107.0.0.0 Safari/537.36","WebKit","Chrome","107.0.0.0","Windows","10.0","","","51","",""
"12473","You see how a student is writing on a board <br> T&uacute ves como un estudiante est&aacute escribiendo en la pizarra","{""Q0"":1}","trial","85132","survey-likert","40","332684","0.0-5.0-0.27","12","1","2022-11-29 21:24:42","2df368f4e41f066fd1c82c297b4a1108","187.254.101.77","Mozilla/5.0 (Windows NT 10.0; Win64; x64) AppleWebKit/537.36 (KHTML, like Gecko) Chrome/107.0.0.0 Safari/537.36","WebKit","Chrome","107.0.0.0","Windows","10.0","[0]","","50","1",""
"5004","You see how a student is writing on a board <br> T&uacute ves como un estudiante est&aacute escribiendo en la pizarra","{""Q0"":""Tú ves como un estudiante está escribiendo en UNA pizarra""}","low_rate","85132","survey-text","41","337692","0.0-5.0-1.27-0.27","12","1","2022-11-29 21:24:42","2df368f4e41f066fd1c82c297b4a1108","187.254.101.77","Mozilla/5.0 (Windows NT 10.0; Win64; x64) AppleWebKit/537.36 (KHTML, like Gecko) Chrome/107.0.0.0 Safari/537.36","WebKit","Chrome","107.0.0.0","Windows","10.0","","","50","",""
"4658","You see how a thief is stealing a wallet <br> T&uacute ves como un ladr&oacuten est&aacute robando una billetera","{""Q0"":4}","trial","85132","survey-likert","42","342351","0.0-5.0-0.28","12","1","2022-11-29 21:24:42","2df368f4e41f066fd1c82c297b4a1108","187.254.101.77","Mozilla/5.0 (Windows NT 10.0; Win64; x64) AppleWebKit/537.36 (KHTML, like Gecko) Chrome/107.0.0.0 Safari/537.36","WebKit","Chrome","107.0.0.0","Windows","10.0","[0]","","68","4",""
"5197","You see how a butterfly is sitting on a flower <br> T&uacute ves como una mariposa est&aacute reposando en una flor","{""Q0"":4}","trial","85132","survey-likert","43","347552","0.0-5.0-0.29","12","1","2022-11-29 21:24:42","2df368f4e41f066fd1c82c297b4a1108","187.254.101.77","Mozilla/5.0 (Windows NT 10.0; Win64; x64) AppleWebKit/537.36 (KHTML, like Gecko) Chrome/107.0.0.0 Safari/537.36","WebKit","Chrome","107.0.0.0","Windows","10.0","[0]","","59","4",""
"3687","You see how a pilot is reading a book <br> T&uacute ves como un piloto est&aacute leyendo un libro","{""Q0"":4}","trial","85132","survey-likert","44","351242","0.0-5.0-0.30","12","1","2022-11-29 21:24:42","2df368f4e41f066fd1c82c297b4a1108","187.254.101.77","Mozilla/5.0 (Windows NT 10.0; Win64; x64) AppleWebKit/537.36 (KHTML, like Gecko) Chrome/107.0.0.0 Safari/537.36","WebKit","Chrome","107.0.0.0","Windows","10.0","[0]","","61","4",""
"5721","You see how a parrot is eating an apple <br> T&uacute ves como un loro est&aacute comiendo una manzana","{""Q0"":4}","trial","85132","survey-likert","45","356965","0.0-5.0-0.31","12","1","2022-11-29 21:24:42","2df368f4e41f066fd1c82c297b4a1108","187.254.101.77","Mozilla/5.0 (Windows NT 10.0; Win64; x64) AppleWebKit/537.36 (KHTML, like Gecko) Chrome/107.0.0.0 Safari/537.36","WebKit","Chrome","107.0.0.0","Windows","10.0","[0]","","58","4",""
"5573","You drop a bowling ball on a cracker <br> T&uacute tiras una bola de boliche a una galleta","{""Q0"":4}","trial","85132","survey-likert","46","362541","0.0-5.0-0.32","12","1","2022-11-29 21:24:42","2df368f4e41f066fd1c82c297b4a1108","187.254.101.77","Mozilla/5.0 (Windows NT 10.0; Win64; x64) AppleWebKit/537.36 (KHTML, like Gecko) Chrome/107.0.0.0 Safari/537.36","WebKit","Chrome","107.0.0.0","Windows","10.0","[0]","","4","4",""
"13335","You drop a bowling ball on glasses <br> T&uacute tiras una bola de boliche a unas gafas","{""Q0"":1}","trial","85132","survey-likert","47","375879","0.0-5.0-0.33","12","1","2022-11-29 21:24:42","2df368f4e41f066fd1c82c297b4a1108","187.254.101.77","Mozilla/5.0 (Windows NT 10.0; Win64; x64) AppleWebKit/537.36 (KHTML, like Gecko) Chrome/107.0.0.0 Safari/537.36","WebKit","Chrome","107.0.0.0","Windows","10.0","[0]","","9","1",""
"6606","You drop a bowling ball on glasses <br> T&uacute tiras una bola de boliche a unas gafas","{""Q0"":""Tú tiras una bola de boliche SOBRE unas gafas""}","low_rate","85132","survey-text","48","382489","0.0-5.0-1.33-0.33","12","1","2022-11-29 21:24:42","2df368f4e41f066fd1c82c297b4a1108","187.254.101.77","Mozilla/5.0 (Windows NT 10.0; Win64; x64) AppleWebKit/537.36 (KHTML, like Gecko) Chrome/107.0.0.0 Safari/537.36","WebKit","Chrome","107.0.0.0","Windows","10.0","","","9","",""
"8624","You see how a president is writing in the notebook <br> T&uacute ves como un presidente est&aacute escribiendo en la libreta","{""Q0"":1}","trial","85132","survey-likert","49","391115","0.0-5.0-0.34","12","1","2022-11-29 21:24:42","2df368f4e41f066fd1c82c297b4a1108","187.254.101.77","Mozilla/5.0 (Windows NT 10.0; Win64; x64) AppleWebKit/537.36 (KHTML, like Gecko) Chrome/107.0.0.0 Safari/537.36","WebKit","Chrome","107.0.0.0","Windows","10.0","[0]","","63","1",""
"11111","You see how a president is writing in the notebook <br> T&uacute ves como un presidente est&aacute escribiendo en la libreta","{""Q0"":""Tú ves como un presidente está escribiendo en UNA libreta""}","low_rate","85132","survey-text","50","402231","0.0-5.0-1.34-0.34","12","1","2022-11-29 21:24:42","2df368f4e41f066fd1c82c297b4a1108","187.254.101.77","Mozilla/5.0 (Windows NT 10.0; Win64; x64) AppleWebKit/537.36 (KHTML, like Gecko) Chrome/107.0.0.0 Safari/537.36","WebKit","Chrome","107.0.0.0","Windows","10.0","","","63","",""
"7416","You see how a photographer is taking a photo of a lion <br> T&uacute ves como un fot&oacutegrafo est&aacute tomando una foto de un le&oacuten","{""Q0"":4}","trial","85132","survey-likert","51","409649","0.0-5.0-0.35","12","1","2022-11-29 21:24:42","2df368f4e41f066fd1c82c297b4a1108","187.254.101.77","Mozilla/5.0 (Windows NT 10.0; Win64; x64) AppleWebKit/537.36 (KHTML, like Gecko) Chrome/107.0.0.0 Safari/537.36","WebKit","Chrome","107.0.0.0","Windows","10.0","[0]","","72","4",""
"7228","You drop a bowling ball on a piece of cake <br> T&uacute tiras una bola de boliche a un trozo de pastel","{""Q0"":4}","trial","85132","survey-likert","52","416881","0.0-5.0-0.36","12","1","2022-11-29 21:24:42","2df368f4e41f066fd1c82c297b4a1108","187.254.101.77","Mozilla/5.0 (Windows NT 10.0; Win64; x64) AppleWebKit/537.36 (KHTML, like Gecko) Chrome/107.0.0.0 Safari/537.36","WebKit","Chrome","107.0.0.0","Windows","10.0","[0]","","2","4",""
"4289","You drop a bowling ball on a light bulb <br> T&uacute tiras una bola de boliche a una bombilla","{""Q0"":4}","trial","85132","survey-likert","53","421173","0.0-5.0-0.37","12","1","2022-11-29 21:24:42","2df368f4e41f066fd1c82c297b4a1108","187.254.101.77","Mozilla/5.0 (Windows NT 10.0; Win64; x64) AppleWebKit/537.36 (KHTML, like Gecko) Chrome/107.0.0.0 Safari/537.36","WebKit","Chrome","107.0.0.0","Windows","10.0","[0]","","14","4",""
"13314","You see how a hairdresser is taking scissors <br> T&uacute ves como una peluquera est&aacute agarrando las tijeras","{""Q0"":1}","trial","85132","survey-likert","54","434491","0.0-5.0-0.38","12","1","2022-11-29 21:24:42","2df368f4e41f066fd1c82c297b4a1108","187.254.101.77","Mozilla/5.0 (Windows NT 10.0; Win64; x64) AppleWebKit/537.36 (KHTML, like Gecko) Chrome/107.0.0.0 Safari/537.36","WebKit","Chrome","107.0.0.0","Windows","10.0","[0]","","60","1",""
"5033","You see how a hairdresser is taking scissors <br> T&uacute ves como una peluquera est&aacute agarrando las tijeras","{""Q0"":""Tú ves como una peluquera está agarrando UNAS tijeras""}","low_rate","85132","survey-text","55","439529","0.0-5.0-1.38-0.38","12","1","2022-11-29 21:24:42","2df368f4e41f066fd1c82c297b4a1108","187.254.101.77","Mozilla/5.0 (Windows NT 10.0; Win64; x64) AppleWebKit/537.36 (KHTML, like Gecko) Chrome/107.0.0.0 Safari/537.36","WebKit","Chrome","107.0.0.0","Windows","10.0","","","60","",""
"6870","You drop a needle on the mouse pad <br> T&uacute tiras una aguja a la alfombrilla para el rat&oacuten","{""Q0"":3}","trial","85132","survey-likert","56","446402","0.0-5.0-0.39","12","1","2022-11-29 21:24:42","2df368f4e41f066fd1c82c297b4a1108","187.254.101.77","Mozilla/5.0 (Windows NT 10.0; Win64; x64) AppleWebKit/537.36 (KHTML, like Gecko) Chrome/107.0.0.0 Safari/537.36","WebKit","Chrome","107.0.0.0","Windows","10.0","[0]","","42","3",""
"4984","You drop a bowling ball on a piece of sushi <br> T&uacute tiras una bola de boliche a un pedazo de sushi","{""Q0"":4}","trial","85132","survey-likert","57","451389","0.0-5.0-0.40","12","1","2022-11-29 21:24:42","2df368f4e41f066fd1c82c297b4a1108","187.254.101.77","Mozilla/5.0 (Windows NT 10.0; Win64; x64) AppleWebKit/537.36 (KHTML, like Gecko) Chrome/107.0.0.0 Safari/537.36","WebKit","Chrome","107.0.0.0","Windows","10.0","[0]","","21","4",""
"4195","You drop a bowling ball on an iPhone <br> T&uacute tiras una bola de boliche a un iPhone","{""Q0"":4}","trial","85132","survey-likert","58","455587","0.0-5.0-0.41","12","1","2022-11-29 21:24:42","2df368f4e41f066fd1c82c297b4a1108","187.254.101.77","Mozilla/5.0 (Windows NT 10.0; Win64; x64) AppleWebKit/537.36 (KHTML, like Gecko) Chrome/107.0.0.0 Safari/537.36","WebKit","Chrome","107.0.0.0","Windows","10.0","[0]","","13","4",""
"5405","You see how a postman is driving a car <br> T&uacute ves como un cartero est&aacute conduciendo un coche","{""Q0"":4}","trial","85132","survey-likert","59","460995","0.0-5.0-0.42","12","1","2022-11-29 21:24:42","2df368f4e41f066fd1c82c297b4a1108","187.254.101.77","Mozilla/5.0 (Windows NT 10.0; Win64; x64) AppleWebKit/537.36 (KHTML, like Gecko) Chrome/107.0.0.0 Safari/537.36","WebKit","Chrome","107.0.0.0","Windows","10.0","[0]","","32","4",""
"6947","You see how a horse is chewing hay <br> T&uacute ves como un caballo est&aacute masticando el heno","{""Q0"":1}","trial","85132","survey-likert","60","467945","0.0-5.0-0.43","12","1","2022-11-29 21:24:42","2df368f4e41f066fd1c82c297b4a1108","187.254.101.77","Mozilla/5.0 (Windows NT 10.0; Win64; x64) AppleWebKit/537.36 (KHTML, like Gecko) Chrome/107.0.0.0 Safari/537.36","WebKit","Chrome","107.0.0.0","Windows","10.0","[0]","","55","1",""
"3788","You see how a horse is chewing hay <br> T&uacute ves como un caballo est&aacute masticando el heno","{""Q0"":""Tú ves como un caballo está masticando heno""}","low_rate","85132","survey-text","61","471737","0.0-5.0-1.43-0.43","12","1","2022-11-29 21:24:42","2df368f4e41f066fd1c82c297b4a1108","187.254.101.77","Mozilla/5.0 (Windows NT 10.0; Win64; x64) AppleWebKit/537.36 (KHTML, like Gecko) Chrome/107.0.0.0 Safari/537.36","WebKit","Chrome","107.0.0.0","Windows","10.0","","","55","",""
"4030","You drop a bowling ball on a hat <br> T&uacute tiras una bola de boliche a una gorra","{""Q0"":3}","trial","85132","survey-likert","62","475769","0.0-5.0-0.44","12","1","2022-11-29 21:24:42","2df368f4e41f066fd1c82c297b4a1108","187.254.101.77","Mozilla/5.0 (Windows NT 10.0; Win64; x64) AppleWebKit/537.36 (KHTML, like Gecko) Chrome/107.0.0.0 Safari/537.36","WebKit","Chrome","107.0.0.0","Windows","10.0","[0]","","10","3",""
"5826","You drop a towel on the TV <br> T&uacute tiras una toalla a la televisi&oacuten","{""Q0"":4}","trial","85132","survey-likert","63","481597","0.0-5.0-0.45","12","1","2022-11-29 21:24:42","2df368f4e41f066fd1c82c297b4a1108","187.254.101.77","Mozilla/5.0 (Windows NT 10.0; Win64; x64) AppleWebKit/537.36 (KHTML, like Gecko) Chrome/107.0.0.0 Safari/537.36","WebKit","Chrome","107.0.0.0","Windows","10.0","[0]","","53","4",""
"10873","You see how a man is boiling potatoes <br> T&uacute ves a un hombre est&aacute hirviendo papas","{""Q0"":1}","trial","85132","survey-likert","64","492473","0.0-5.0-0.46","12","1","2022-11-29 21:24:42","2df368f4e41f066fd1c82c297b4a1108","187.254.101.77","Mozilla/5.0 (Windows NT 10.0; Win64; x64) AppleWebKit/537.36 (KHTML, like Gecko) Chrome/107.0.0.0 Safari/537.36","WebKit","Chrome","107.0.0.0","Windows","10.0","[0]","","46","1",""
"7542","You see how a man is boiling potatoes <br> T&uacute ves a un hombre est&aacute hirviendo papas","{""Q0"":""Tú ves COMO un hombre está hirviendo papas""}","low_rate","85132","survey-text","65","500019","0.0-5.0-1.46-0.46","12","1","2022-11-29 21:24:42","2df368f4e41f066fd1c82c297b4a1108","187.254.101.77","Mozilla/5.0 (Windows NT 10.0; Win64; x64) AppleWebKit/537.36 (KHTML, like Gecko) Chrome/107.0.0.0 Safari/537.36","WebKit","Chrome","107.0.0.0","Windows","10.0","","","46","",""
"4500","You drop a bowling ball on a wine glass <br> T&uacute tiras una bola de boliche a una copa de vino","{""Q0"":4}","trial","85132","survey-likert","66","504521","0.0-5.0-0.47","12","1","2022-11-29 21:24:42","2df368f4e41f066fd1c82c297b4a1108","187.254.101.77","Mozilla/5.0 (Windows NT 10.0; Win64; x64) AppleWebKit/537.36 (KHTML, like Gecko) Chrome/107.0.0.0 Safari/537.36","WebKit","Chrome","107.0.0.0","Windows","10.0","[0]","","5","4",""
"3627","You drop a bowling ball on a mirror <br> T&uacute tiras una bola de boliche a un espejo","{""Q0"":4}","trial","85132","survey-likert","67","508151","0.0-5.0-0.48","12","1","2022-11-29 21:24:42","2df368f4e41f066fd1c82c297b4a1108","187.254.101.77","Mozilla/5.0 (Windows NT 10.0; Win64; x64) AppleWebKit/537.36 (KHTML, like Gecko) Chrome/107.0.0.0 Safari/537.36","WebKit","Chrome","107.0.0.0","Windows","10.0","[0]","","15","4",""
"6264","You drop a bowling ball on an egg flan <br> T&uacute tiras una bola de boliche a un flan","{""Q0"":4}","trial","85132","survey-likert","68","514418","0.0-5.0-0.49","12","1","2022-11-29 21:24:42","2df368f4e41f066fd1c82c297b4a1108","187.254.101.77","Mozilla/5.0 (Windows NT 10.0; Win64; x64) AppleWebKit/537.36 (KHTML, like Gecko) Chrome/107.0.0.0 Safari/537.36","WebKit","Chrome","107.0.0.0","Windows","10.0","[0]","","7","4",""
"5645","You drop a bowling ball on a tile <br> T&uacute tiras una bola de boliche a una baldosa","{""Q0"":4}","trial","85132","survey-likert","69","520067","0.0-5.0-0.50","12","1","2022-11-29 21:24:42","2df368f4e41f066fd1c82c297b4a1108","187.254.101.77","Mozilla/5.0 (Windows NT 10.0; Win64; x64) AppleWebKit/537.36 (KHTML, like Gecko) Chrome/107.0.0.0 Safari/537.36","WebKit","Chrome","107.0.0.0","Windows","10.0","[0]","","22","4",""
"4686","You see how a cat is drinking water from a bowl <br> T&uacute ves como un gato est&aacute bebiendo agua de un cuenco","{""Q0"":4}","trial","85132","survey-likert","70","524757","0.0-5.0-0.51","12","1","2022-11-29 21:24:42","2df368f4e41f066fd1c82c297b4a1108","187.254.101.77","Mozilla/5.0 (Windows NT 10.0; Win64; x64) AppleWebKit/537.36 (KHTML, like Gecko) Chrome/107.0.0.0 Safari/537.36","WebKit","Chrome","107.0.0.0","Windows","10.0","[0]","","28","4",""
"311389","You drop a bowling ball on a blackberry <br> T&uacute tiras una bola de boliche a una mora","{""Q0"":4}","trial","85132","survey-likert","71","836149","0.0-5.0-0.52","12","1","2022-11-29 21:24:42","2df368f4e41f066fd1c82c297b4a1108","187.254.101.77","Mozilla/5.0 (Windows NT 10.0; Win64; x64) AppleWebKit/537.36 (KHTML, like Gecko) Chrome/107.0.0.0 Safari/537.36","WebKit","Chrome","107.0.0.0","Windows","10.0","[0]","","8","4",""
"4912","You drop a cushion on the magazine <br> T&uacute tiras un coj&iacuten a la revista","{""Q0"":4}","trial","85132","survey-likert","72","841065","0.0-5.0-0.53","12","1","2022-11-29 21:24:42","2df368f4e41f066fd1c82c297b4a1108","187.254.101.77","Mozilla/5.0 (Windows NT 10.0; Win64; x64) AppleWebKit/537.36 (KHTML, like Gecko) Chrome/107.0.0.0 Safari/537.36","WebKit","Chrome","107.0.0.0","Windows","10.0","[0]","","38","4",""
"4321","You drop a bowling ball on a tomato <br> T&uacute tiras una bola de boliche a un tomate","{""Q0"":4}","trial","85132","survey-likert","73","845389","0.0-5.0-0.54","12","1","2022-11-29 21:24:42","2df368f4e41f066fd1c82c297b4a1108","187.254.101.77","Mozilla/5.0 (Windows NT 10.0; Win64; x64) AppleWebKit/537.36 (KHTML, like Gecko) Chrome/107.0.0.0 Safari/537.36","WebKit","Chrome","107.0.0.0","Windows","10.0","[0]","","23","4",""
"7912","You see how a dentist is drinking a can of cola <br> T&uacute ves como un dentista est&aacute bebiendo una lata de cola","{""Q0"":4}","trial","85132","survey-likert","74","853305","0.0-5.0-0.55","12","1","2022-11-29 21:24:42","2df368f4e41f066fd1c82c297b4a1108","187.254.101.77","Mozilla/5.0 (Windows NT 10.0; Win64; x64) AppleWebKit/537.36 (KHTML, like Gecko) Chrome/107.0.0.0 Safari/537.36","WebKit","Chrome","107.0.0.0","Windows","10.0","[0]","","47","4",""
"4909","You see how a woman is paying with a debit card <br> T&uacute ves como una mujer est&aacute pagando con una tarjeta de d&eacutebito","{""Q0"":4}","trial","85132","survey-likert","75","858217","0.0-5.0-0.56","12","1","2022-11-29 21:24:42","2df368f4e41f066fd1c82c297b4a1108","187.254.101.77","Mozilla/5.0 (Windows NT 10.0; Win64; x64) AppleWebKit/537.36 (KHTML, like Gecko) Chrome/107.0.0.0 Safari/537.36","WebKit","Chrome","107.0.0.0","Windows","10.0","[0]","","64","4",""
"6269","You see how a giraffe is playing with a zebra <br> T&uacute ves como una jirafa est&aacute jugando con una cebra","{""Q0"":4}","trial","85132","survey-likert","76","864489","0.0-5.0-0.57","12","1","2022-11-29 21:24:42","2df368f4e41f066fd1c82c297b4a1108","187.254.101.77","Mozilla/5.0 (Windows NT 10.0; Win64; x64) AppleWebKit/537.36 (KHTML, like Gecko) Chrome/107.0.0.0 Safari/537.36","WebKit","Chrome","107.0.0.0","Windows","10.0","[0]","","65","4",""
"12305","You see how a mouse is eating cheese <br> T&uacute ves como el rat&oacuten est&aacute comiendo queso","{""Q0"":1}","trial","85132","survey-likert","77","876797","0.0-5.0-0.58","12","1","2022-11-29 21:24:42","2df368f4e41f066fd1c82c297b4a1108","187.254.101.77","Mozilla/5.0 (Windows NT 10.0; Win64; x64) AppleWebKit/537.36 (KHTML, like Gecko) Chrome/107.0.0.0 Safari/537.36","WebKit","Chrome","107.0.0.0","Windows","10.0","[0]","","56","1",""
"5221","You see how a mouse is eating cheese <br> T&uacute ves como el rat&oacuten est&aacute comiendo queso","{""Q0"":""Tú ves como UN ratón está comiendo queso""}","low_rate","85132","survey-text","78","882023","0.0-5.0-1.58-0.58","12","1","2022-11-29 21:24:42","2df368f4e41f066fd1c82c297b4a1108","187.254.101.77","Mozilla/5.0 (Windows NT 10.0; Win64; x64) AppleWebKit/537.36 (KHTML, like Gecko) Chrome/107.0.0.0 Safari/537.36","WebKit","Chrome","107.0.0.0","Windows","10.0","","","56","",""
"727656","You see how a puppy is playing with a ball <br> T&uacute ves como un cachorro est&aacute jugando con una pelota","{""Q0"":4}","trial","85132","survey-likert","79","1609681","0.0-5.0-0.59","12","1","2022-11-29 21:24:42","2df368f4e41f066fd1c82c297b4a1108","187.254.101.77","Mozilla/5.0 (Windows NT 10.0; Win64; x64) AppleWebKit/537.36 (KHTML, like Gecko) Chrome/107.0.0.0 Safari/537.36","WebKit","Chrome","107.0.0.0","Windows","10.0","[0]","","34","4",""
"5616","You see how a man is shaving his beard <br> T&uacute ves como un hombre se est&aacute afeitando la barba","{""Q0"":4}","trial","85132","survey-likert","80","1615301","0.0-5.0-0.60","12","1","2022-11-29 21:24:42","2df368f4e41f066fd1c82c297b4a1108","187.254.101.77","Mozilla/5.0 (Windows NT 10.0; Win64; x64) AppleWebKit/537.36 (KHTML, like Gecko) Chrome/107.0.0.0 Safari/537.36","WebKit","Chrome","107.0.0.0","Windows","10.0","[0]","","43","4",""
"3675","You see how an elephant is eating a watermelon <br> T&uacute ves como un elefante est&aacute comiendo una sand&iacutea","{""Q0"":4}","trial","85132","survey-likert","81","1618980","0.0-5.0-0.61","12","1","2022-11-29 21:24:42","2df368f4e41f066fd1c82c297b4a1108","187.254.101.77","Mozilla/5.0 (Windows NT 10.0; Win64; x64) AppleWebKit/537.36 (KHTML, like Gecko) Chrome/107.0.0.0 Safari/537.36","WebKit","Chrome","107.0.0.0","Windows","10.0","[0]","","31","4",""
"5053","You drop a fork on the plate <br> T&uacute tiras un tenedor al plato","{""Q0"":4}","trial","85132","survey-likert","82","1624037","0.0-5.0-0.62","12","1","2022-11-29 21:24:42","2df368f4e41f066fd1c82c297b4a1108","187.254.101.77","Mozilla/5.0 (Windows NT 10.0; Win64; x64) AppleWebKit/537.36 (KHTML, like Gecko) Chrome/107.0.0.0 Safari/537.36","WebKit","Chrome","107.0.0.0","Windows","10.0","[0]","","26","4",""
"3301","You see how a donkey is drinking water <br> T&uacute ves como un burro est&aacute bebiendo agua","{""Q0"":4}","trial","85132","survey-likert","83","1627341","0.0-5.0-0.63","12","1","2022-11-29 21:24:42","2df368f4e41f066fd1c82c297b4a1108","187.254.101.77","Mozilla/5.0 (Windows NT 10.0; Win64; x64) AppleWebKit/537.36 (KHTML, like Gecko) Chrome/107.0.0.0 Safari/537.36","WebKit","Chrome","107.0.0.0","Windows","10.0","[0]","","45","4",""
"3485","You drop a ring on the newspaper <br> T&uacute tiras un anillo al peri&oacutedico","{""Q0"":4}","trial","85132","survey-likert","84","1630829","0.0-5.0-0.64","12","1","2022-11-29 21:24:42","2df368f4e41f066fd1c82c297b4a1108","187.254.101.77","Mozilla/5.0 (Windows NT 10.0; Win64; x64) AppleWebKit/537.36 (KHTML, like Gecko) Chrome/107.0.0.0 Safari/537.36","WebKit","Chrome","107.0.0.0","Windows","10.0","[0]","","41","4",""
"4606","You drop a keyboard on the bed <br> T&uacute tiras un teclado a la cama","{""Q0"":4}","trial","85132","survey-likert","85","1635439","0.0-5.0-0.65","12","1","2022-11-29 21:24:42","2df368f4e41f066fd1c82c297b4a1108","187.254.101.77","Mozilla/5.0 (Windows NT 10.0; Win64; x64) AppleWebKit/537.36 (KHTML, like Gecko) Chrome/107.0.0.0 Safari/537.36","WebKit","Chrome","107.0.0.0","Windows","10.0","[0]","","36","4",""
"7314","You see how a teenage girl is playing the piano <br> T&uacute ves como una ni&ntildea adolescente est&aacute tocando el piano","{""Q0"":4}","trial","85132","survey-likert","86","1642757","0.0-5.0-0.66","12","1","2022-11-29 21:24:42","2df368f4e41f066fd1c82c297b4a1108","187.254.101.77","Mozilla/5.0 (Windows NT 10.0; Win64; x64) AppleWebKit/537.36 (KHTML, like Gecko) Chrome/107.0.0.0 Safari/537.36","WebKit","Chrome","107.0.0.0","Windows","10.0","[0]","","54","4",""
"11756","You drop a bowling ball on a ceramic plate <br> T&uacute tiras una bola de boliche a un plato de cer&aacutemica","{""Q0"":4}","trial","85132","survey-likert","87","1654517","0.0-5.0-0.67","12","1","2022-11-29 21:24:42","2df368f4e41f066fd1c82c297b4a1108","187.254.101.77","Mozilla/5.0 (Windows NT 10.0; Win64; x64) AppleWebKit/537.36 (KHTML, like Gecko) Chrome/107.0.0.0 Safari/537.36","WebKit","Chrome","107.0.0.0","Windows","10.0","[0]","","19","4",""
"2420","You drop a bowling ball on a donut <br> T&uacute tiras una bola de boliche a una rosquilla","{""Q0"":4}","trial","85132","survey-likert","88","1656941","0.0-5.0-0.68","12","1","2022-11-29 21:24:42","2df368f4e41f066fd1c82c297b4a1108","187.254.101.77","Mozilla/5.0 (Windows NT 10.0; Win64; x64) AppleWebKit/537.36 (KHTML, like Gecko) Chrome/107.0.0.0 Safari/537.36","WebKit","Chrome","107.0.0.0","Windows","10.0","[0]","","17","4",""
"9964","You see how an astronaut is putting on a space suit <br> T&uacute ves como un astronauta se est&aacute poniendo su traje espacial","{""Q0"":1}","trial","85132","survey-likert","89","1666909","0.0-5.0-0.69","12","1","2022-11-29 21:24:42","2df368f4e41f066fd1c82c297b4a1108","187.254.101.77","Mozilla/5.0 (Windows NT 10.0; Win64; x64) AppleWebKit/537.36 (KHTML, like Gecko) Chrome/107.0.0.0 Safari/537.36","WebKit","Chrome","107.0.0.0","Windows","10.0","[0]","","33","1",""
"4399","You see how an astronaut is putting on a space suit <br> T&uacute ves como un astronauta se est&aacute poniendo su traje espacial","{""Q0"":""Tú ves como un astronauta se está poniendo UN traje espacial""}","low_rate","85132","survey-text","90","1671313","0.0-5.0-1.69-0.69","12","1","2022-11-29 21:24:42","2df368f4e41f066fd1c82c297b4a1108","187.254.101.77","Mozilla/5.0 (Windows NT 10.0; Win64; x64) AppleWebKit/537.36 (KHTML, like Gecko) Chrome/107.0.0.0 Safari/537.36","WebKit","Chrome","107.0.0.0","Windows","10.0","","","33","",""
"182479","You drop a toothbrush on the sponge <br> T&uacute tiras un cepillo de dientes en la esponja","{""Q0"":4}","trial","85132","survey-likert","91","1853794","0.0-5.0-0.70","12","1","2022-11-29 21:24:42","2df368f4e41f066fd1c82c297b4a1108","187.254.101.77","Mozilla/5.0 (Windows NT 10.0; Win64; x64) AppleWebKit/537.36 (KHTML, like Gecko) Chrome/107.0.0.0 Safari/537.36","WebKit","Chrome","107.0.0.0","Windows","10.0","[0]","","25","4",""
"3867","You see how an owl is sitting on the branch <br> T&uacute ves como un b&uacuteho est&aacute reposando en una rama","{""Q0"":4}","trial","85132","survey-likert","92","1857665","0.0-5.0-0.71","12","1","2022-11-29 21:24:42","2df368f4e41f066fd1c82c297b4a1108","187.254.101.77","Mozilla/5.0 (Windows NT 10.0; Win64; x64) AppleWebKit/537.36 (KHTML, like Gecko) Chrome/107.0.0.0 Safari/537.36","WebKit","Chrome","107.0.0.0","Windows","10.0","[0]","","69","4",""
"3361","
    <p style=""font-size:20px;""> You have completed the experiment portion! </p>
    <p style=""font-size:20px;""> Before you are done, we would like you to answer some basic demographic questions. </p>
    <p style=""font-size:20px;""> Note that your answers to these questions will not affect your compensation/credit. </p>
    <p style=""font-size:20px;""> Click the button below to continue.</p>
    ","0","demo","85132","html-button-response","93","1861031","0.0-6.0","12","1","2022-11-29 21:24:42","2df368f4e41f066fd1c82c297b4a1108","187.254.101.77","Mozilla/5.0 (Windows NT 10.0; Win64; x64) AppleWebKit/537.36 (KHTML, like Gecko) Chrome/107.0.0.0 Safari/537.36","WebKit","Chrome","107.0.0.0","Windows","10.0","","","","",""
"18803","","{""Age"":""22"",""Gender"":""female"",""Education"":""16""}","demo","85132","survey-text","94","1879839","0.0-7.0-0.0","12","1","2022-11-29 21:24:42","2df368f4e41f066fd1c82c297b4a1108","187.254.101.77","Mozilla/5.0 (Windows NT 10.0; Win64; x64) AppleWebKit/537.36 (KHTML, like Gecko) Chrome/107.0.0.0 Safari/537.36","WebKit","Chrome","107.0.0.0","Windows","10.0","","","","",""
"8654","","{""Race"":[""Other""]}","demo","85132","survey-multi-select","95","1888497","0.0-7.0-1.0","12","1","2022-11-29 21:24:42","2df368f4e41f066fd1c82c297b4a1108","187.254.101.77","Mozilla/5.0 (Windows NT 10.0; Win64; x64) AppleWebKit/537.36 (KHTML, like Gecko) Chrome/107.0.0.0 Safari/537.36","WebKit","Chrome","107.0.0.0","Windows","10.0","[0]","","","",""
"9307","","{""Latino"":""Yes"",""Alert"":""Morning""}","demo","85132","survey-multi-choice","96","1897809","0.0-7.0-2.0","12","1","2022-11-29 21:24:42","2df368f4e41f066fd1c82c297b4a1108","187.254.101.77","Mozilla/5.0 (Windows NT 10.0; Win64; x64) AppleWebKit/537.36 (KHTML, like Gecko) Chrome/107.0.0.0 Safari/537.36","WebKit","Chrome","107.0.0.0","Windows","10.0","[0,1]","","","",""
"8363","","{""Q0"":""none""}","demo","85132","survey-text","97","1906179","0.0-7.0-3.0","12","1","2022-11-29 21:24:42","2df368f4e41f066fd1c82c297b4a1108","187.254.101.77","Mozilla/5.0 (Windows NT 10.0; Win64; x64) AppleWebKit/537.36 (KHTML, like Gecko) Chrome/107.0.0.0 Safari/537.36","WebKit","Chrome","107.0.0.0","Windows","10.0","","","","",""
"6297","<p>Thank you for participating! </p><strong>Your completion code is: CXEJB7NH. Please copy-paste this code and submit it on Prolific.</strong><p>Click <a href=""https://drive.google.com/file/d/1c70cdHFlc0AaR6RujLWLJwWkv1RbHQJY/view?usp=sharing"" target=""_blank"" rel=""noopener noreferrer"">here</a> to access the debriefing form and know more about our research. <p> Please click the button below to finish the experiment and save your data.</p> <p> IMPORTANT: Please <strong>do not leave this page </strong> without clicking the button below.</p> <p> You may close the tab/window after you click the button below.","0","","","html-button-response","98","1912479","0.0-8.0","12","1","2022-11-29 21:24:42","2df368f4e41f066fd1c82c297b4a1108","187.254.101.77","Mozilla/5.0 (Windows NT 10.0; Win64; x64) AppleWebKit/537.36 (KHTML, like Gecko) Chrome/107.0.0.0 Safari/537.36","WebKit","Chrome","107.0.0.0","Windows","10.0","","","","",""
