"rt","stimulus","response","typeoftrial","subject","trial_type","trial_index","time_elapsed","internal_node_id","run_id","condition","recorded_at","source_code_version","ip","user_agent","device","browser","browser_version","platform","platform_version","question_order","practice_rating","sentence_num","rating","Experiment"
"8046","
        <p style=""font-size:20px;""> Welcome! Thank you for your interest in our study. </p>
        <p style=""font-size:20px;""> This study is being conducted by researchers at Bowdoin College.</p>
        <p style=""font-size:20px;""> In this experiment, you will be asked to rate the accuracy of English and Spanish translations.</p>
        <p style=""font-size:20px;""> The entire experiment should not last more than 20 minutes. You will be paid $3 USD for your participation. </p>
        <p style=""font-size:20px;""> Please click <a href = ""https://drive.google.com/file/d/1L92a02eEKCpaAEipmqDcBCDR7rsarqFE/view?usp=sharing"" target = ""_blank"">here</a> to read the full consent form. </p>
        <p style=""font-size:20px;""> If you agree to participate, please click the button below to continue to experiment instructions.</p>
        ","0","consent","63444","html-button-response","0","8049","0.0-0.0","36","1","2022-11-29 21:25:03","2df368f4e41f066fd1c82c297b4a1108","90.71.166.235","Mozilla/5.0 (Windows NT 10.0; Win64; x64) AppleWebKit/537.36 (KHTML, like Gecko) Chrome/107.0.0.0 Safari/537.36","WebKit","Chrome","107.0.0.0","Windows","10.0","","","","",""
"3068","","{""ID"":""5e9344648401ad03a45600ab""}","ID","63444","survey-text","1","11124","0.0-1.0","36","1","2022-11-29 21:25:03","2df368f4e41f066fd1c82c297b4a1108","90.71.166.235","Mozilla/5.0 (Windows NT 10.0; Win64; x64) AppleWebKit/537.36 (KHTML, like Gecko) Chrome/107.0.0.0 Safari/537.36","WebKit","Chrome","107.0.0.0","Windows","10.0","","","","",""
"18080","
        <p style=""font-size:20px;""> You are about to begin the practice test. </p>
        <p style=""font-size:20px;""> On each trial, you will see a sentence in English and its corresponding Spanish translation. </p>
        <p style=""font-size:20px;""> You will rate the accuracy of the translation on a scale from ""Not at all accurate"" to ""Very accurate."" </p>
        <p style=""font-size:20px;""> If you rate the translation as ""Somewhat innaccurate"" or ""Not at all accurate,"" you will be asked to provide your own translation or a reason why the translation is inaccurate. </p>
        <p style=""font-size:20px;""> Click the button below to continue to the practice session.</p>","0","instructions","63444","html-button-response","2","29205","0.0-2.0","36","1","2022-11-29 21:25:03","2df368f4e41f066fd1c82c297b4a1108","90.71.166.235","Mozilla/5.0 (Windows NT 10.0; Win64; x64) AppleWebKit/537.36 (KHTML, like Gecko) Chrome/107.0.0.0 Safari/537.36","WebKit","Chrome","107.0.0.0","Windows","10.0","","","","",""
"14863","You see how an artist is running <br> T&uacute ves como un artista est&aacute corriendo","{""Q0"":4}","practice","63444","survey-likert","3","44074","0.0-3.0-0.0","36","1","2022-11-29 21:25:03","2df368f4e41f066fd1c82c297b4a1108","90.71.166.235","Mozilla/5.0 (Windows NT 10.0; Win64; x64) AppleWebKit/537.36 (KHTML, like Gecko) Chrome/107.0.0.0 Safari/537.36","WebKit","Chrome","107.0.0.0","Windows","10.0","[0]","4","","",""
"44164","You see how a duck is playing with a pumpkin <br> T&uacute ves como un pato est&aacute jugando con una calabaza","{""Q0"":4}","practice","63444","survey-likert","4","88248","0.0-3.0-0.1","36","1","2022-11-29 21:25:03","2df368f4e41f066fd1c82c297b4a1108","90.71.166.235","Mozilla/5.0 (Windows NT 10.0; Win64; x64) AppleWebKit/537.36 (KHTML, like Gecko) Chrome/107.0.0.0 Safari/537.36","WebKit","Chrome","107.0.0.0","Windows","10.0","[0]","4","","",""
"21780","You see how a teacher is drawing a picture <br> T&uacute ves como un maestro pinta una foto","{""Q0"":3}","practice","63444","survey-likert","5","110033","0.0-3.0-0.2","36","1","2022-11-29 21:25:03","2df368f4e41f066fd1c82c297b4a1108","90.71.166.235","Mozilla/5.0 (Windows NT 10.0; Win64; x64) AppleWebKit/537.36 (KHTML, like Gecko) Chrome/107.0.0.0 Safari/537.36","WebKit","Chrome","107.0.0.0","Windows","10.0","[0]","3","","",""
"18659","You drop a bowling ball on a mircrowave <br> T&uacute tiras una bola de boliche a un horno","{""Q0"":1}","practice","63444","survey-likert","6","128698","0.0-3.0-0.3","36","1","2022-11-29 21:25:03","2df368f4e41f066fd1c82c297b4a1108","90.71.166.235","Mozilla/5.0 (Windows NT 10.0; Win64; x64) AppleWebKit/537.36 (KHTML, like Gecko) Chrome/107.0.0.0 Safari/537.36","WebKit","Chrome","107.0.0.0","Windows","10.0","[0]","1","","",""
"75925","You drop a bowling ball on a mircrowave <br> T&uacute tiras una bola de boliche a un horno","{""Q0"":""Tiras una bola de bolos sobre un microondas.""}","practice_low_rate","63444","survey-text","7","204632","0.0-3.0-1.3-0.3","36","1","2022-11-29 21:25:03","2df368f4e41f066fd1c82c297b4a1108","90.71.166.235","Mozilla/5.0 (Windows NT 10.0; Win64; x64) AppleWebKit/537.36 (KHTML, like Gecko) Chrome/107.0.0.0 Safari/537.36","WebKit","Chrome","107.0.0.0","Windows","10.0","","","6","",""
"152393","You drop a rock on a phone <br> T&uacute tiras una piedra a un tel&eacutefono","{""Q0"":1}","practice","63444","survey-likert","8","357027","0.0-3.0-0.4","36","1","2022-11-29 21:25:03","2df368f4e41f066fd1c82c297b4a1108","90.71.166.235","Mozilla/5.0 (Windows NT 10.0; Win64; x64) AppleWebKit/537.36 (KHTML, like Gecko) Chrome/107.0.0.0 Safari/537.36","WebKit","Chrome","107.0.0.0","Windows","10.0","[0]","1","","",""
"16022","You drop a rock on a phone <br> T&uacute tiras una piedra a un tel&eacutefono","{""Q0"":""Dejas caer una piedra en el teléfono.""}","practice_low_rate","63444","survey-text","9","373057","0.0-3.0-1.4-0.4","36","1","2022-11-29 21:25:03","2df368f4e41f066fd1c82c297b4a1108","90.71.166.235","Mozilla/5.0 (Windows NT 10.0; Win64; x64) AppleWebKit/537.36 (KHTML, like Gecko) Chrome/107.0.0.0 Safari/537.36","WebKit","Chrome","107.0.0.0","Windows","10.0","","","1","",""
"70536","You see how a tiger is playing with a goose <br> T&uacute ves como un le&oacuten come una pizza","{""Q0"":0}","practice","63444","survey-likert","10","443594","0.0-3.0-0.5","36","1","2022-11-29 21:25:03","2df368f4e41f066fd1c82c297b4a1108","90.71.166.235","Mozilla/5.0 (Windows NT 10.0; Win64; x64) AppleWebKit/537.36 (KHTML, like Gecko) Chrome/107.0.0.0 Safari/537.36","WebKit","Chrome","107.0.0.0","Windows","10.0","[0]","0","","",""
"20014","You see how a tiger is playing with a goose <br> T&uacute ves como un le&oacuten come una pizza","{""Q0"":""Ves como un tigre juega con un ganso.""}","practice_low_rate","63444","survey-text","11","463616","0.0-3.0-1.5-0.5","36","1","2022-11-29 21:25:03","2df368f4e41f066fd1c82c297b4a1108","90.71.166.235","Mozilla/5.0 (Windows NT 10.0; Win64; x64) AppleWebKit/537.36 (KHTML, like Gecko) Chrome/107.0.0.0 Safari/537.36","WebKit","Chrome","107.0.0.0","Windows","10.0","","","5","",""
"5111","<p style=""font-size:20px;"">You have now completed the practice session! </p>
        <p style=""font-size:20px;"">You will now move on to the main experiment. </p>
        <p style=""font-size:20px;"">Please click the button below to continue. </p>","0","movetoexp","63444","html-button-response","12","468728","0.0-4.0","36","1","2022-11-29 21:25:03","2df368f4e41f066fd1c82c297b4a1108","90.71.166.235","Mozilla/5.0 (Windows NT 10.0; Win64; x64) AppleWebKit/537.36 (KHTML, like Gecko) Chrome/107.0.0.0 Safari/537.36","WebKit","Chrome","107.0.0.0","Windows","10.0","","","","",""
"16673","You drop a bowling ball on glasses <br> T&uacute tiras una bola de boliche a unas gafas","{""Q0"":1}","trial","63444","survey-likert","13","485402","0.0-5.0-0.0","36","1","2022-11-29 21:25:03","2df368f4e41f066fd1c82c297b4a1108","90.71.166.235","Mozilla/5.0 (Windows NT 10.0; Win64; x64) AppleWebKit/537.36 (KHTML, like Gecko) Chrome/107.0.0.0 Safari/537.36","WebKit","Chrome","107.0.0.0","Windows","10.0","[0]","","9","1",""
"10806","You drop a bowling ball on glasses <br> T&uacute tiras una bola de boliche a unas gafas","{""Q0"":""Dejas caer una bola de bolos en unas gafas.""}","low_rate","63444","survey-text","14","496218","0.0-5.0-1.0-0.0","36","1","2022-11-29 21:25:03","2df368f4e41f066fd1c82c297b4a1108","90.71.166.235","Mozilla/5.0 (Windows NT 10.0; Win64; x64) AppleWebKit/537.36 (KHTML, like Gecko) Chrome/107.0.0.0 Safari/537.36","WebKit","Chrome","107.0.0.0","Windows","10.0","","","9","",""
"6956","You see how a giraffe is playing with a zebra <br> T&uacute ves como una jirafa est&aacute jugando con una cebra","{""Q0"":4}","trial","63444","survey-likert","15","503177","0.0-5.0-0.1","36","1","2022-11-29 21:25:03","2df368f4e41f066fd1c82c297b4a1108","90.71.166.235","Mozilla/5.0 (Windows NT 10.0; Win64; x64) AppleWebKit/537.36 (KHTML, like Gecko) Chrome/107.0.0.0 Safari/537.36","WebKit","Chrome","107.0.0.0","Windows","10.0","[0]","","65","4",""
"16832","You drop a toothbrush on the sponge <br> T&uacute tiras un cepillo de dientes en la esponja","{""Q0"":3}","trial","63444","survey-likert","16","520015","0.0-5.0-0.2","36","1","2022-11-29 21:25:03","2df368f4e41f066fd1c82c297b4a1108","90.71.166.235","Mozilla/5.0 (Windows NT 10.0; Win64; x64) AppleWebKit/537.36 (KHTML, like Gecko) Chrome/107.0.0.0 Safari/537.36","WebKit","Chrome","107.0.0.0","Windows","10.0","[0]","","25","3",""
"16489","You drop a keyboard on the bed <br> T&uacute tiras un teclado a la cama","{""Q0"":3}","trial","63444","survey-likert","17","536508","0.0-5.0-0.3","36","1","2022-11-29 21:25:03","2df368f4e41f066fd1c82c297b4a1108","90.71.166.235","Mozilla/5.0 (Windows NT 10.0; Win64; x64) AppleWebKit/537.36 (KHTML, like Gecko) Chrome/107.0.0.0 Safari/537.36","WebKit","Chrome","107.0.0.0","Windows","10.0","[0]","","36","3",""
"15812","You drop a needle on the mouse pad <br> T&uacute tiras una aguja a la alfombrilla para el rat&oacuten","{""Q0"":3}","trial","63444","survey-likert","18","552328","0.0-5.0-0.4","36","1","2022-11-29 21:25:03","2df368f4e41f066fd1c82c297b4a1108","90.71.166.235","Mozilla/5.0 (Windows NT 10.0; Win64; x64) AppleWebKit/537.36 (KHTML, like Gecko) Chrome/107.0.0.0 Safari/537.36","WebKit","Chrome","107.0.0.0","Windows","10.0","[0]","","42","3",""
"18676","You see how a doctor is taking a stethoscope <br> T&uacute ves como un doctor est&aacute agarrando un estetoscopio","{""Q0"":4}","trial","63444","survey-likert","19","571011","0.0-5.0-0.5","36","1","2022-11-29 21:25:03","2df368f4e41f066fd1c82c297b4a1108","90.71.166.235","Mozilla/5.0 (Windows NT 10.0; Win64; x64) AppleWebKit/537.36 (KHTML, like Gecko) Chrome/107.0.0.0 Safari/537.36","WebKit","Chrome","107.0.0.0","Windows","10.0","[0]","","49","4",""
"8453","You see how an owl is sitting on the branch <br> T&uacute ves como un b&uacuteho est&aacute reposando en una rama","{""Q0"":4}","trial","63444","survey-likert","20","579470","0.0-5.0-0.6","36","1","2022-11-29 21:25:03","2df368f4e41f066fd1c82c297b4a1108","90.71.166.235","Mozilla/5.0 (Windows NT 10.0; Win64; x64) AppleWebKit/537.36 (KHTML, like Gecko) Chrome/107.0.0.0 Safari/537.36","WebKit","Chrome","107.0.0.0","Windows","10.0","[0]","","69","4",""
"19318","You see how an astronaut is putting on a space suit <br> T&uacute ves como un astronauta se est&aacute poniendo su traje espacial","{""Q0"":3}","trial","63444","survey-likert","21","598795","0.0-5.0-0.7","36","1","2022-11-29 21:25:03","2df368f4e41f066fd1c82c297b4a1108","90.71.166.235","Mozilla/5.0 (Windows NT 10.0; Win64; x64) AppleWebKit/537.36 (KHTML, like Gecko) Chrome/107.0.0.0 Safari/537.36","WebKit","Chrome","107.0.0.0","Windows","10.0","[0]","","33","3",""
"16256","You drop a bowling ball on a light bulb <br> T&uacute tiras una bola de boliche a una bombilla","{""Q0"":4}","trial","63444","survey-likert","22","615058","0.0-5.0-0.8","36","1","2022-11-29 21:25:03","2df368f4e41f066fd1c82c297b4a1108","90.71.166.235","Mozilla/5.0 (Windows NT 10.0; Win64; x64) AppleWebKit/537.36 (KHTML, like Gecko) Chrome/107.0.0.0 Safari/537.36","WebKit","Chrome","107.0.0.0","Windows","10.0","[0]","","14","4",""
"15490","You see how a pilot is reading a book <br> T&uacute ves como un piloto est&aacute leyendo un libro","{""Q0"":4}","trial","63444","survey-likert","23","630556","0.0-5.0-0.9","36","1","2022-11-29 21:25:03","2df368f4e41f066fd1c82c297b4a1108","90.71.166.235","Mozilla/5.0 (Windows NT 10.0; Win64; x64) AppleWebKit/537.36 (KHTML, like Gecko) Chrome/107.0.0.0 Safari/537.36","WebKit","Chrome","107.0.0.0","Windows","10.0","[0]","","61","4",""
"7020","You drop a bowling ball on a piece of sushi <br> T&uacute tiras una bola de boliche a un pedazo de sushi","{""Q0"":4}","trial","63444","survey-likert","24","637585","0.0-5.0-0.10","36","1","2022-11-29 21:25:03","2df368f4e41f066fd1c82c297b4a1108","90.71.166.235","Mozilla/5.0 (Windows NT 10.0; Win64; x64) AppleWebKit/537.36 (KHTML, like Gecko) Chrome/107.0.0.0 Safari/537.36","WebKit","Chrome","107.0.0.0","Windows","10.0","[0]","","21","4",""
"6627","You drop a bowling ball on a piece of cake <br> T&uacute tiras una bola de boliche a un trozo de pastel","{""Q0"":3}","trial","63444","survey-likert","25","644218","0.0-5.0-0.11","36","1","2022-11-29 21:25:03","2df368f4e41f066fd1c82c297b4a1108","90.71.166.235","Mozilla/5.0 (Windows NT 10.0; Win64; x64) AppleWebKit/537.36 (KHTML, like Gecko) Chrome/107.0.0.0 Safari/537.36","WebKit","Chrome","107.0.0.0","Windows","10.0","[0]","","2","3",""
"6684","You see how a musician is playing a guitar <br> T&uacute ves como un m&uacutesico est&aacute tocando la guitarra","{""Q0"":4}","trial","63444","survey-likert","26","650909","0.0-5.0-0.12","36","1","2022-11-29 21:25:03","2df368f4e41f066fd1c82c297b4a1108","90.71.166.235","Mozilla/5.0 (Windows NT 10.0; Win64; x64) AppleWebKit/537.36 (KHTML, like Gecko) Chrome/107.0.0.0 Safari/537.36","WebKit","Chrome","107.0.0.0","Windows","10.0","[0]","","27","4",""
"7066","You drop a bowling ball on a porcelain figure <br> T&uacute tiras una bola de boliche a una figura de porcelana","{""Q0"":3}","trial","63444","survey-likert","27","657983","0.0-5.0-0.13","36","1","2022-11-29 21:25:03","2df368f4e41f066fd1c82c297b4a1108","90.71.166.235","Mozilla/5.0 (Windows NT 10.0; Win64; x64) AppleWebKit/537.36 (KHTML, like Gecko) Chrome/107.0.0.0 Safari/537.36","WebKit","Chrome","107.0.0.0","Windows","10.0","[0]","","1","3",""
"5862","You drop a bowling ball on a donut <br> T&uacute tiras una bola de boliche a una rosquilla","{""Q0"":3}","trial","63444","survey-likert","28","663852","0.0-5.0-0.14","36","1","2022-11-29 21:25:03","2df368f4e41f066fd1c82c297b4a1108","90.71.166.235","Mozilla/5.0 (Windows NT 10.0; Win64; x64) AppleWebKit/537.36 (KHTML, like Gecko) Chrome/107.0.0.0 Safari/537.36","WebKit","Chrome","107.0.0.0","Windows","10.0","[0]","","17","3",""
"8138","You drop a bowling ball on an empty can of beer <br> T&uacute tiras una bola de boliche a una lata de cerveza vac&iacutea","{""Q0"":3}","trial","63444","survey-likert","29","671996","0.0-5.0-0.15","36","1","2022-11-29 21:25:03","2df368f4e41f066fd1c82c297b4a1108","90.71.166.235","Mozilla/5.0 (Windows NT 10.0; Win64; x64) AppleWebKit/537.36 (KHTML, like Gecko) Chrome/107.0.0.0 Safari/537.36","WebKit","Chrome","107.0.0.0","Windows","10.0","[0]","","3","3",""
"4935","You drop a bowling ball on a tile <br> T&uacute tiras una bola de boliche a una baldosa","{""Q0"":3}","trial","63444","survey-likert","30","676938","0.0-5.0-0.16","36","1","2022-11-29 21:25:03","2df368f4e41f066fd1c82c297b4a1108","90.71.166.235","Mozilla/5.0 (Windows NT 10.0; Win64; x64) AppleWebKit/537.36 (KHTML, like Gecko) Chrome/107.0.0.0 Safari/537.36","WebKit","Chrome","107.0.0.0","Windows","10.0","[0]","","22","3",""
"6502","You see how a panda is resting on a tree <br> T&uacute ves como un panda est&aacute descansando en un &aacuterbol","{""Q0"":4}","trial","63444","survey-likert","31","683449","0.0-5.0-0.17","36","1","2022-11-29 21:25:03","2df368f4e41f066fd1c82c297b4a1108","90.71.166.235","Mozilla/5.0 (Windows NT 10.0; Win64; x64) AppleWebKit/537.36 (KHTML, like Gecko) Chrome/107.0.0.0 Safari/537.36","WebKit","Chrome","107.0.0.0","Windows","10.0","[0]","","57","4",""
"6179","You see how a parrot is eating an apple <br> T&uacute ves como un loro est&aacute comiendo una manzana","{""Q0"":4}","trial","63444","survey-likert","32","689635","0.0-5.0-0.18","36","1","2022-11-29 21:25:03","2df368f4e41f066fd1c82c297b4a1108","90.71.166.235","Mozilla/5.0 (Windows NT 10.0; Win64; x64) AppleWebKit/537.36 (KHTML, like Gecko) Chrome/107.0.0.0 Safari/537.36","WebKit","Chrome","107.0.0.0","Windows","10.0","[0]","","58","4",""
"6529","You drop a bowling ball on a paper cup <br> T&uacute tiras una bola de boliche a un vaso de papel","{""Q0"":3}","trial","63444","survey-likert","33","696171","0.0-5.0-0.19","36","1","2022-11-29 21:25:03","2df368f4e41f066fd1c82c297b4a1108","90.71.166.235","Mozilla/5.0 (Windows NT 10.0; Win64; x64) AppleWebKit/537.36 (KHTML, like Gecko) Chrome/107.0.0.0 Safari/537.36","WebKit","Chrome","107.0.0.0","Windows","10.0","[0]","","24","3",""
"9833","You drop a cabbage on the table <br> T&uacute tiras una col a la mesa","{""Q0"":3}","trial","63444","survey-likert","34","706011","0.0-5.0-0.20","36","1","2022-11-29 21:25:03","2df368f4e41f066fd1c82c297b4a1108","90.71.166.235","Mozilla/5.0 (Windows NT 10.0; Win64; x64) AppleWebKit/537.36 (KHTML, like Gecko) Chrome/107.0.0.0 Safari/537.36","WebKit","Chrome","107.0.0.0","Windows","10.0","[0]","","35","3",""
"44813","You see how an old man is hammering a nail <br> T&uacute ves como un hombre anciano est&aacute martillando un clavo","{""Q0"":2}","trial","63444","survey-likert","35","750835","0.0-5.0-0.21","36","1","2022-11-29 21:25:03","2df368f4e41f066fd1c82c297b4a1108","90.71.166.235","Mozilla/5.0 (Windows NT 10.0; Win64; x64) AppleWebKit/537.36 (KHTML, like Gecko) Chrome/107.0.0.0 Safari/537.36","WebKit","Chrome","107.0.0.0","Windows","10.0","[0]","","29","2",""
"6362","You see how a thief is stealing a wallet <br> T&uacute ves como un ladr&oacuten est&aacute robando una billetera","{""Q0"":4}","trial","63444","survey-likert","36","757206","0.0-5.0-0.22","36","1","2022-11-29 21:25:03","2df368f4e41f066fd1c82c297b4a1108","90.71.166.235","Mozilla/5.0 (Windows NT 10.0; Win64; x64) AppleWebKit/537.36 (KHTML, like Gecko) Chrome/107.0.0.0 Safari/537.36","WebKit","Chrome","107.0.0.0","Windows","10.0","[0]","","68","4",""
"6455","You drop a bowling ball on a rice cake <br> T&uacute tiras una bola de boliche a una tortita de arroz","{""Q0"":4}","trial","63444","survey-likert","37","763670","0.0-5.0-0.23","36","1","2022-11-29 21:25:03","2df368f4e41f066fd1c82c297b4a1108","90.71.166.235","Mozilla/5.0 (Windows NT 10.0; Win64; x64) AppleWebKit/537.36 (KHTML, like Gecko) Chrome/107.0.0.0 Safari/537.36","WebKit","Chrome","107.0.0.0","Windows","10.0","[0]","","18","4",""
"4439","You drop a bowling ball on an iPhone <br> T&uacute tiras una bola de boliche a un iPhone","{""Q0"":4}","trial","63444","survey-likert","38","768116","0.0-5.0-0.24","36","1","2022-11-29 21:25:03","2df368f4e41f066fd1c82c297b4a1108","90.71.166.235","Mozilla/5.0 (Windows NT 10.0; Win64; x64) AppleWebKit/537.36 (KHTML, like Gecko) Chrome/107.0.0.0 Safari/537.36","WebKit","Chrome","107.0.0.0","Windows","10.0","[0]","","13","4",""
"5893","You see how a kitten is playing in the sandbox <br> T&uacute ves como un gatito est&aacute jugando en la caja de arena","{""Q0"":4}","trial","63444","survey-likert","39","774016","0.0-5.0-0.25","36","1","2022-11-29 21:25:03","2df368f4e41f066fd1c82c297b4a1108","90.71.166.235","Mozilla/5.0 (Windows NT 10.0; Win64; x64) AppleWebKit/537.36 (KHTML, like Gecko) Chrome/107.0.0.0 Safari/537.36","WebKit","Chrome","107.0.0.0","Windows","10.0","[0]","","52","4",""
"5056","You drop a cushion on the magazine <br> T&uacute tiras un coj&iacuten a la revista","{""Q0"":3}","trial","63444","survey-likert","40","779079","0.0-5.0-0.26","36","1","2022-11-29 21:25:03","2df368f4e41f066fd1c82c297b4a1108","90.71.166.235","Mozilla/5.0 (Windows NT 10.0; Win64; x64) AppleWebKit/537.36 (KHTML, like Gecko) Chrome/107.0.0.0 Safari/537.36","WebKit","Chrome","107.0.0.0","Windows","10.0","[0]","","38","3",""
"9464","You see how a hairdresser is taking scissors <br> T&uacute ves como una peluquera est&aacute agarrando las tijeras","{""Q0"":3}","trial","63444","survey-likert","41","788551","0.0-5.0-0.27","36","1","2022-11-29 21:25:03","2df368f4e41f066fd1c82c297b4a1108","90.71.166.235","Mozilla/5.0 (Windows NT 10.0; Win64; x64) AppleWebKit/537.36 (KHTML, like Gecko) Chrome/107.0.0.0 Safari/537.36","WebKit","Chrome","107.0.0.0","Windows","10.0","[0]","","60","3",""
"8565","You drop a bowling ball on an egg <br> T&uacute tiras una bola de boliche a un huevo","{""Q0"":3}","trial","63444","survey-likert","42","797123","0.0-5.0-0.28","36","1","2022-11-29 21:25:03","2df368f4e41f066fd1c82c297b4a1108","90.71.166.235","Mozilla/5.0 (Windows NT 10.0; Win64; x64) AppleWebKit/537.36 (KHTML, like Gecko) Chrome/107.0.0.0 Safari/537.36","WebKit","Chrome","107.0.0.0","Windows","10.0","[0]","","6","3",""
"13756","You see how a student is writing on a board <br> T&uacute ves como un estudiante est&aacute escribiendo en la pizarra","{""Q0"":4}","trial","63444","survey-likert","43","810885","0.0-5.0-0.29","36","1","2022-11-29 21:25:03","2df368f4e41f066fd1c82c297b4a1108","90.71.166.235","Mozilla/5.0 (Windows NT 10.0; Win64; x64) AppleWebKit/537.36 (KHTML, like Gecko) Chrome/107.0.0.0 Safari/537.36","WebKit","Chrome","107.0.0.0","Windows","10.0","[0]","","50","4",""
"10108","You see how a horse is chewing hay <br> T&uacute ves como un caballo est&aacute masticando el heno","{""Q0"":4}","trial","63444","survey-likert","44","821001","0.0-5.0-0.30","36","1","2022-11-29 21:25:03","2df368f4e41f066fd1c82c297b4a1108","90.71.166.235","Mozilla/5.0 (Windows NT 10.0; Win64; x64) AppleWebKit/537.36 (KHTML, like Gecko) Chrome/107.0.0.0 Safari/537.36","WebKit","Chrome","107.0.0.0","Windows","10.0","[0]","","55","4",""
"7578","You see how a man is shaving his beard <br> T&uacute ves como un hombre se est&aacute afeitando la barba","{""Q0"":4}","trial","63444","survey-likert","45","828586","0.0-5.0-0.31","36","1","2022-11-29 21:25:03","2df368f4e41f066fd1c82c297b4a1108","90.71.166.235","Mozilla/5.0 (Windows NT 10.0; Win64; x64) AppleWebKit/537.36 (KHTML, like Gecko) Chrome/107.0.0.0 Safari/537.36","WebKit","Chrome","107.0.0.0","Windows","10.0","[0]","","43","4",""
"125781","You drop a bowling ball on a chocolate muffin <br> T&uacute tiras una bola de boliche a una magdalena de chocolate","{""Q0"":3}","trial","63444","survey-likert","46","954375","0.0-5.0-0.32","36","1","2022-11-29 21:25:03","2df368f4e41f066fd1c82c297b4a1108","90.71.166.235","Mozilla/5.0 (Windows NT 10.0; Win64; x64) AppleWebKit/537.36 (KHTML, like Gecko) Chrome/107.0.0.0 Safari/537.36","WebKit","Chrome","107.0.0.0","Windows","10.0","[0]","","16","3",""
"49633","You drop a bowling ball on a wine glass <br> T&uacute tiras una bola de boliche a una copa de vino","{""Q0"":3}","trial","63444","survey-likert","47","1004016","0.0-5.0-0.33","36","1","2022-11-29 21:25:03","2df368f4e41f066fd1c82c297b4a1108","90.71.166.235","Mozilla/5.0 (Windows NT 10.0; Win64; x64) AppleWebKit/537.36 (KHTML, like Gecko) Chrome/107.0.0.0 Safari/537.36","WebKit","Chrome","107.0.0.0","Windows","10.0","[0]","","5","3",""
"6186","You see how a zebra is playing with a horse <br> T&uacute ves como una cebra est&aacute jugando con un caballo","{""Q0"":4}","trial","63444","survey-likert","48","1010212","0.0-5.0-0.34","36","1","2022-11-29 21:25:03","2df368f4e41f066fd1c82c297b4a1108","90.71.166.235","Mozilla/5.0 (Windows NT 10.0; Win64; x64) AppleWebKit/537.36 (KHTML, like Gecko) Chrome/107.0.0.0 Safari/537.36","WebKit","Chrome","107.0.0.0","Windows","10.0","[0]","","66","4",""
"29001","You drop a bowling ball on a strawberry <br> T&uacute tiras una bola de boliche a una fresa","{""Q0"":3}","trial","63444","survey-likert","49","1039220","0.0-5.0-0.35","36","1","2022-11-29 21:25:03","2df368f4e41f066fd1c82c297b4a1108","90.71.166.235","Mozilla/5.0 (Windows NT 10.0; Win64; x64) AppleWebKit/537.36 (KHTML, like Gecko) Chrome/107.0.0.0 Safari/537.36","WebKit","Chrome","107.0.0.0","Windows","10.0","[0]","","20","3",""
"43765","You drop a bowling ball on a ceramic plate <br> T&uacute tiras una bola de boliche a un plato de cer&aacutemica","{""Q0"":3}","trial","63444","survey-likert","50","1082994","0.0-5.0-0.36","36","1","2022-11-29 21:25:03","2df368f4e41f066fd1c82c297b4a1108","90.71.166.235","Mozilla/5.0 (Windows NT 10.0; Win64; x64) AppleWebKit/537.36 (KHTML, like Gecko) Chrome/107.0.0.0 Safari/537.36","WebKit","Chrome","107.0.0.0","Windows","10.0","[0]","","19","3",""
"7770","You drop a bowling ball on an iPAD <br> T&uacute tiras una bola de boliche a un iPad","{""Q0"":3}","trial","63444","survey-likert","51","1090772","0.0-5.0-0.37","36","1","2022-11-29 21:25:03","2df368f4e41f066fd1c82c297b4a1108","90.71.166.235","Mozilla/5.0 (Windows NT 10.0; Win64; x64) AppleWebKit/537.36 (KHTML, like Gecko) Chrome/107.0.0.0 Safari/537.36","WebKit","Chrome","107.0.0.0","Windows","10.0","[0]","","12","3",""
"7147","You see how a president is writing in the notebook <br> T&uacute ves como un presidente est&aacute escribiendo en la libreta","{""Q0"":4}","trial","63444","survey-likert","52","1097929","0.0-5.0-0.38","36","1","2022-11-29 21:25:03","2df368f4e41f066fd1c82c297b4a1108","90.71.166.235","Mozilla/5.0 (Windows NT 10.0; Win64; x64) AppleWebKit/537.36 (KHTML, like Gecko) Chrome/107.0.0.0 Safari/537.36","WebKit","Chrome","107.0.0.0","Windows","10.0","[0]","","63","4",""
"5490","You drop a towel on the TV <br> T&uacute tiras una toalla a la televisi&oacuten","{""Q0"":3}","trial","63444","survey-likert","53","1103426","0.0-5.0-0.39","36","1","2022-11-29 21:25:03","2df368f4e41f066fd1c82c297b4a1108","90.71.166.235","Mozilla/5.0 (Windows NT 10.0; Win64; x64) AppleWebKit/537.36 (KHTML, like Gecko) Chrome/107.0.0.0 Safari/537.36","WebKit","Chrome","107.0.0.0","Windows","10.0","[0]","","53","3",""
"9393","You see how a butterfly is sitting on a flower <br> T&uacute ves como una mariposa est&aacute reposando en una flor","{""Q0"":4}","trial","63444","survey-likert","54","1112826","0.0-5.0-0.40","36","1","2022-11-29 21:25:03","2df368f4e41f066fd1c82c297b4a1108","90.71.166.235","Mozilla/5.0 (Windows NT 10.0; Win64; x64) AppleWebKit/537.36 (KHTML, like Gecko) Chrome/107.0.0.0 Safari/537.36","WebKit","Chrome","107.0.0.0","Windows","10.0","[0]","","59","4",""
"8587","You see how a woman is taking money out of a wallet <br> T&uacute ves como una mujer est&aacute sacando dinero de su billetera","{""Q0"":3}","trial","63444","survey-likert","55","1121422","0.0-5.0-0.41","36","1","2022-11-29 21:25:03","2df368f4e41f066fd1c82c297b4a1108","90.71.166.235","Mozilla/5.0 (Windows NT 10.0; Win64; x64) AppleWebKit/537.36 (KHTML, like Gecko) Chrome/107.0.0.0 Safari/537.36","WebKit","Chrome","107.0.0.0","Windows","10.0","[0]","","44","3",""
"25025","You see how an actress is taking a microphone <br> T&uacute ves como una actriz est&aacute agarrando el micr&oacutefono","{""Q0"":4}","trial","63444","survey-likert","56","1146456","0.0-5.0-0.42","36","1","2022-11-29 21:25:03","2df368f4e41f066fd1c82c297b4a1108","90.71.166.235","Mozilla/5.0 (Windows NT 10.0; Win64; x64) AppleWebKit/537.36 (KHTML, like Gecko) Chrome/107.0.0.0 Safari/537.36","WebKit","Chrome","107.0.0.0","Windows","10.0","[0]","","51","4",""
"7545","You drop a bowling ball on a hat <br> T&uacute tiras una bola de boliche a una gorra","{""Q0"":3}","trial","63444","survey-likert","57","1154012","0.0-5.0-0.43","36","1","2022-11-29 21:25:03","2df368f4e41f066fd1c82c297b4a1108","90.71.166.235","Mozilla/5.0 (Windows NT 10.0; Win64; x64) AppleWebKit/537.36 (KHTML, like Gecko) Chrome/107.0.0.0 Safari/537.36","WebKit","Chrome","107.0.0.0","Windows","10.0","[0]","","10","3",""
"5524","You see how a man is playing with a cat <br> T&uacute ves como un hombre est&aacute jugando con un gato","{""Q0"":4}","trial","63444","survey-likert","58","1159544","0.0-5.0-0.44","36","1","2022-11-29 21:25:03","2df368f4e41f066fd1c82c297b4a1108","90.71.166.235","Mozilla/5.0 (Windows NT 10.0; Win64; x64) AppleWebKit/537.36 (KHTML, like Gecko) Chrome/107.0.0.0 Safari/537.36","WebKit","Chrome","107.0.0.0","Windows","10.0","[0]","","67","4",""
"3263","You see how a man is boiling potatoes <br> T&uacute ves a un hombre est&aacute hirviendo papas","{""Q0"":4}","trial","63444","survey-likert","59","1162815","0.0-5.0-0.45","36","1","2022-11-29 21:25:03","2df368f4e41f066fd1c82c297b4a1108","90.71.166.235","Mozilla/5.0 (Windows NT 10.0; Win64; x64) AppleWebKit/537.36 (KHTML, like Gecko) Chrome/107.0.0.0 Safari/537.36","WebKit","Chrome","107.0.0.0","Windows","10.0","[0]","","46","4",""
"4680","You see how a cook is taking a knife <br> T&uacute ves como un cocinero est&aacute agarrando un cuchillo","{""Q0"":4}","trial","63444","survey-likert","60","1167503","0.0-5.0-0.46","36","1","2022-11-29 21:25:03","2df368f4e41f066fd1c82c297b4a1108","90.71.166.235","Mozilla/5.0 (Windows NT 10.0; Win64; x64) AppleWebKit/537.36 (KHTML, like Gecko) Chrome/107.0.0.0 Safari/537.36","WebKit","Chrome","107.0.0.0","Windows","10.0","[0]","","71","4",""
"7083","You see how a puppy is playing with a ball <br> T&uacute ves como un cachorro est&aacute jugando con una pelota","{""Q0"":4}","trial","63444","survey-likert","61","1174595","0.0-5.0-0.47","36","1","2022-11-29 21:25:03","2df368f4e41f066fd1c82c297b4a1108","90.71.166.235","Mozilla/5.0 (Windows NT 10.0; Win64; x64) AppleWebKit/537.36 (KHTML, like Gecko) Chrome/107.0.0.0 Safari/537.36","WebKit","Chrome","107.0.0.0","Windows","10.0","[0]","","34","4",""
"5333","You drop a bowling ball on a cracker <br> T&uacute tiras una bola de boliche a una galleta","{""Q0"":3}","trial","63444","survey-likert","62","1179935","0.0-5.0-0.48","36","1","2022-11-29 21:25:03","2df368f4e41f066fd1c82c297b4a1108","90.71.166.235","Mozilla/5.0 (Windows NT 10.0; Win64; x64) AppleWebKit/537.36 (KHTML, like Gecko) Chrome/107.0.0.0 Safari/537.36","WebKit","Chrome","107.0.0.0","Windows","10.0","[0]","","4","3",""
"5230","You drop a pencil on the shoe <br> T&uacute tiras un l&aacutepiz al zapato","{""Q0"":3}","trial","63444","survey-likert","63","1185174","0.0-5.0-0.49","36","1","2022-11-29 21:25:03","2df368f4e41f066fd1c82c297b4a1108","90.71.166.235","Mozilla/5.0 (Windows NT 10.0; Win64; x64) AppleWebKit/537.36 (KHTML, like Gecko) Chrome/107.0.0.0 Safari/537.36","WebKit","Chrome","107.0.0.0","Windows","10.0","[0]","","40","3",""
"10662","You see how a boy is peeling a banana <br> T&uacute ves como un ni&ntildeo est&aacute pelando una banana","{""Q0"":4}","trial","63444","survey-likert","64","1195845","0.0-5.0-0.50","36","1","2022-11-29 21:25:03","2df368f4e41f066fd1c82c297b4a1108","90.71.166.235","Mozilla/5.0 (Windows NT 10.0; Win64; x64) AppleWebKit/537.36 (KHTML, like Gecko) Chrome/107.0.0.0 Safari/537.36","WebKit","Chrome","107.0.0.0","Windows","10.0","[0]","","30","4",""
"11413","You drop a thermometer on the box <br> T&uacute tiras un term&oacutemetro a la caja","{""Q0"":3}","trial","63444","survey-likert","65","1207267","0.0-5.0-0.51","36","1","2022-11-29 21:25:03","2df368f4e41f066fd1c82c297b4a1108","90.71.166.235","Mozilla/5.0 (Windows NT 10.0; Win64; x64) AppleWebKit/537.36 (KHTML, like Gecko) Chrome/107.0.0.0 Safari/537.36","WebKit","Chrome","107.0.0.0","Windows","10.0","[0]","","70","3",""
"3724","You drop a watch on the laptop <br> T&uacute tiras un reloj al port&aacutetil","{""Q0"":3}","trial","63444","survey-likert","66","1211004","0.0-5.0-0.52","36","1","2022-11-29 21:25:03","2df368f4e41f066fd1c82c297b4a1108","90.71.166.235","Mozilla/5.0 (Windows NT 10.0; Win64; x64) AppleWebKit/537.36 (KHTML, like Gecko) Chrome/107.0.0.0 Safari/537.36","WebKit","Chrome","107.0.0.0","Windows","10.0","[0]","","37","3",""
"4873","You see how a photographer is taking a photo of a lion <br> T&uacute ves como un fot&oacutegrafo est&aacute tomando una foto de un le&oacuten","{""Q0"":4}","trial","63444","survey-likert","67","1215886","0.0-5.0-0.53","36","1","2022-11-29 21:25:03","2df368f4e41f066fd1c82c297b4a1108","90.71.166.235","Mozilla/5.0 (Windows NT 10.0; Win64; x64) AppleWebKit/537.36 (KHTML, like Gecko) Chrome/107.0.0.0 Safari/537.36","WebKit","Chrome","107.0.0.0","Windows","10.0","[0]","","72","4",""
"8845","You see how a woman is paying with a debit card <br> T&uacute ves como una mujer est&aacute pagando con una tarjeta de d&eacutebito","{""Q0"":4}","trial","63444","survey-likert","68","1224740","0.0-5.0-0.54","36","1","2022-11-29 21:25:03","2df368f4e41f066fd1c82c297b4a1108","90.71.166.235","Mozilla/5.0 (Windows NT 10.0; Win64; x64) AppleWebKit/537.36 (KHTML, like Gecko) Chrome/107.0.0.0 Safari/537.36","WebKit","Chrome","107.0.0.0","Windows","10.0","[0]","","64","4",""
"7481","You drop a remote on the rug <br> T&uacute tiras un control remoto a la alfombra","{""Q0"":3}","trial","63444","survey-likert","69","1232234","0.0-5.0-0.55","36","1","2022-11-29 21:25:03","2df368f4e41f066fd1c82c297b4a1108","90.71.166.235","Mozilla/5.0 (Windows NT 10.0; Win64; x64) AppleWebKit/537.36 (KHTML, like Gecko) Chrome/107.0.0.0 Safari/537.36","WebKit","Chrome","107.0.0.0","Windows","10.0","[0]","","39","3",""
"48001","You see how an elephant is eating a watermelon <br> T&uacute ves como un elefante est&aacute comiendo una sand&iacutea","{""Q0"":3}","trial","63444","survey-likert","70","1280249","0.0-5.0-0.56","36","1","2022-11-29 21:25:03","2df368f4e41f066fd1c82c297b4a1108","90.71.166.235","Mozilla/5.0 (Windows NT 10.0; Win64; x64) AppleWebKit/537.36 (KHTML, like Gecko) Chrome/107.0.0.0 Safari/537.36","WebKit","Chrome","107.0.0.0","Windows","10.0","[0]","","31","3",""
"7774","You see how a dentist is drinking a can of cola <br> T&uacute ves como un dentista est&aacute bebiendo una lata de cola","{""Q0"":4}","trial","63444","survey-likert","71","1288031","0.0-5.0-0.57","36","1","2022-11-29 21:25:03","2df368f4e41f066fd1c82c297b4a1108","90.71.166.235","Mozilla/5.0 (Windows NT 10.0; Win64; x64) AppleWebKit/537.36 (KHTML, like Gecko) Chrome/107.0.0.0 Safari/537.36","WebKit","Chrome","107.0.0.0","Windows","10.0","[0]","","47","4",""
"14745","You drop a bowling ball on a mirror <br> T&uacute tiras una bola de boliche a un espejo","{""Q0"":3}","trial","63444","survey-likert","72","1302786","0.0-5.0-0.58","36","1","2022-11-29 21:25:03","2df368f4e41f066fd1c82c297b4a1108","90.71.166.235","Mozilla/5.0 (Windows NT 10.0; Win64; x64) AppleWebKit/537.36 (KHTML, like Gecko) Chrome/107.0.0.0 Safari/537.36","WebKit","Chrome","107.0.0.0","Windows","10.0","[0]","","15","3",""
"9313","You drop a fork on the plate <br> T&uacute tiras un tenedor al plato","{""Q0"":3}","trial","63444","survey-likert","73","1312108","0.0-5.0-0.59","36","1","2022-11-29 21:25:03","2df368f4e41f066fd1c82c297b4a1108","90.71.166.235","Mozilla/5.0 (Windows NT 10.0; Win64; x64) AppleWebKit/537.36 (KHTML, like Gecko) Chrome/107.0.0.0 Safari/537.36","WebKit","Chrome","107.0.0.0","Windows","10.0","[0]","","26","3",""
"4663","You drop a bowling ball on a chocolate ice-cream <br> T&uacute tiras una bola de boliche a un helado de chocolate","{""Q0"":3}","trial","63444","survey-likert","74","1316782","0.0-5.0-0.60","36","1","2022-11-29 21:25:03","2df368f4e41f066fd1c82c297b4a1108","90.71.166.235","Mozilla/5.0 (Windows NT 10.0; Win64; x64) AppleWebKit/537.36 (KHTML, like Gecko) Chrome/107.0.0.0 Safari/537.36","WebKit","Chrome","107.0.0.0","Windows","10.0","[0]","","11","3",""
"6218","You see how a postman is driving a car <br> T&uacute ves como un cartero est&aacute conduciendo un coche","{""Q0"":4}","trial","63444","survey-likert","75","1323007","0.0-5.0-0.61","36","1","2022-11-29 21:25:03","2df368f4e41f066fd1c82c297b4a1108","90.71.166.235","Mozilla/5.0 (Windows NT 10.0; Win64; x64) AppleWebKit/537.36 (KHTML, like Gecko) Chrome/107.0.0.0 Safari/537.36","WebKit","Chrome","107.0.0.0","Windows","10.0","[0]","","32","4",""
"4857","You drop a bowling ball on an egg flan <br> T&uacute tiras una bola de boliche a un flan","{""Q0"":3}","trial","63444","survey-likert","76","1327875","0.0-5.0-0.62","36","1","2022-11-29 21:25:03","2df368f4e41f066fd1c82c297b4a1108","90.71.166.235","Mozilla/5.0 (Windows NT 10.0; Win64; x64) AppleWebKit/537.36 (KHTML, like Gecko) Chrome/107.0.0.0 Safari/537.36","WebKit","Chrome","107.0.0.0","Windows","10.0","[0]","","7","3",""
"5395","You see how a mouse is eating cheese <br> T&uacute ves como el rat&oacuten est&aacute comiendo queso","{""Q0"":4}","trial","63444","survey-likert","77","1333281","0.0-5.0-0.63","36","1","2022-11-29 21:25:03","2df368f4e41f066fd1c82c297b4a1108","90.71.166.235","Mozilla/5.0 (Windows NT 10.0; Win64; x64) AppleWebKit/537.36 (KHTML, like Gecko) Chrome/107.0.0.0 Safari/537.36","WebKit","Chrome","107.0.0.0","Windows","10.0","[0]","","56","4",""
"6876","You see how a police officer is talking on the phone <br> T&uacute ves como un polic&iacutea est&aacute hablando por el tel&eacutefono","{""Q0"":4}","trial","63444","survey-likert","78","1340166","0.0-5.0-0.64","36","1","2022-11-29 21:25:03","2df368f4e41f066fd1c82c297b4a1108","90.71.166.235","Mozilla/5.0 (Windows NT 10.0; Win64; x64) AppleWebKit/537.36 (KHTML, like Gecko) Chrome/107.0.0.0 Safari/537.36","WebKit","Chrome","107.0.0.0","Windows","10.0","[0]","","62","4",""
"29584","You see how a cat is drinking water from a bowl <br> T&uacute ves como un gato est&aacute bebiendo agua de un cuenco","{""Q0"":4}","trial","63444","survey-likert","79","1369758","0.0-5.0-0.65","36","1","2022-11-29 21:25:03","2df368f4e41f066fd1c82c297b4a1108","90.71.166.235","Mozilla/5.0 (Windows NT 10.0; Win64; x64) AppleWebKit/537.36 (KHTML, like Gecko) Chrome/107.0.0.0 Safari/537.36","WebKit","Chrome","107.0.0.0","Windows","10.0","[0]","","28","4",""
"17526","You see how a teenage girl is playing the piano <br> T&uacute ves como una ni&ntildea adolescente est&aacute tocando el piano","{""Q0"":4}","trial","63444","survey-likert","80","1387294","0.0-5.0-0.66","36","1","2022-11-29 21:25:03","2df368f4e41f066fd1c82c297b4a1108","90.71.166.235","Mozilla/5.0 (Windows NT 10.0; Win64; x64) AppleWebKit/537.36 (KHTML, like Gecko) Chrome/107.0.0.0 Safari/537.36","WebKit","Chrome","107.0.0.0","Windows","10.0","[0]","","54","4",""
"3937","You drop a ring on the newspaper <br> T&uacute tiras un anillo al peri&oacutedico","{""Q0"":3}","trial","63444","survey-likert","81","1391242","0.0-5.0-0.67","36","1","2022-11-29 21:25:03","2df368f4e41f066fd1c82c297b4a1108","90.71.166.235","Mozilla/5.0 (Windows NT 10.0; Win64; x64) AppleWebKit/537.36 (KHTML, like Gecko) Chrome/107.0.0.0 Safari/537.36","WebKit","Chrome","107.0.0.0","Windows","10.0","[0]","","41","3",""
"10435","You see how a nurse is taking a syringe <br> T&uacute ves como una enfermera est&aacute agarrando una jeringuilla","{""Q0"":3}","trial","63444","survey-likert","82","1401688","0.0-5.0-0.68","36","1","2022-11-29 21:25:03","2df368f4e41f066fd1c82c297b4a1108","90.71.166.235","Mozilla/5.0 (Windows NT 10.0; Win64; x64) AppleWebKit/537.36 (KHTML, like Gecko) Chrome/107.0.0.0 Safari/537.36","WebKit","Chrome","107.0.0.0","Windows","10.0","[0]","","48","3",""
"4762","You see how a donkey is drinking water <br> T&uacute ves como un burro est&aacute bebiendo agua","{""Q0"":4}","trial","63444","survey-likert","83","1406460","0.0-5.0-0.69","36","1","2022-11-29 21:25:03","2df368f4e41f066fd1c82c297b4a1108","90.71.166.235","Mozilla/5.0 (Windows NT 10.0; Win64; x64) AppleWebKit/537.36 (KHTML, like Gecko) Chrome/107.0.0.0 Safari/537.36","WebKit","Chrome","107.0.0.0","Windows","10.0","[0]","","45","4",""
"3333","You drop a bowling ball on a tomato <br> T&uacute tiras una bola de boliche a un tomate","{""Q0"":3}","trial","63444","survey-likert","84","1409803","0.0-5.0-0.70","36","1","2022-11-29 21:25:03","2df368f4e41f066fd1c82c297b4a1108","90.71.166.235","Mozilla/5.0 (Windows NT 10.0; Win64; x64) AppleWebKit/537.36 (KHTML, like Gecko) Chrome/107.0.0.0 Safari/537.36","WebKit","Chrome","107.0.0.0","Windows","10.0","[0]","","23","3",""
"8307","You drop a bowling ball on a blackberry <br> T&uacute tiras una bola de boliche a una mora","{""Q0"":3}","trial","63444","survey-likert","85","1418119","0.0-5.0-0.71","36","1","2022-11-29 21:25:03","2df368f4e41f066fd1c82c297b4a1108","90.71.166.235","Mozilla/5.0 (Windows NT 10.0; Win64; x64) AppleWebKit/537.36 (KHTML, like Gecko) Chrome/107.0.0.0 Safari/537.36","WebKit","Chrome","107.0.0.0","Windows","10.0","[0]","","8","3",""
"5386","
    <p style=""font-size:20px;""> You have completed the experiment portion! </p>
    <p style=""font-size:20px;""> Before you are done, we would like you to answer some basic demographic questions. </p>
    <p style=""font-size:20px;""> Note that your answers to these questions will not affect your compensation/credit. </p>
    <p style=""font-size:20px;""> Click the button below to continue.</p>
    ","0","demo","63444","html-button-response","86","1423516","0.0-6.0","36","1","2022-11-29 21:25:03","2df368f4e41f066fd1c82c297b4a1108","90.71.166.235","Mozilla/5.0 (Windows NT 10.0; Win64; x64) AppleWebKit/537.36 (KHTML, like Gecko) Chrome/107.0.0.0 Safari/537.36","WebKit","Chrome","107.0.0.0","Windows","10.0","","","","",""
"23278","","{""Age"":""23"",""Gender"":""Male"",""Education"":""16""}","demo","63444","survey-text","87","1446802","0.0-7.0-0.0","36","1","2022-11-29 21:25:03","2df368f4e41f066fd1c82c297b4a1108","90.71.166.235","Mozilla/5.0 (Windows NT 10.0; Win64; x64) AppleWebKit/537.36 (KHTML, like Gecko) Chrome/107.0.0.0 Safari/537.36","WebKit","Chrome","107.0.0.0","Windows","10.0","","","","",""
"19406","","{""Race"":[""Other""]}","demo","63444","survey-multi-select","88","1466220","0.0-7.0-1.0","36","1","2022-11-29 21:25:03","2df368f4e41f066fd1c82c297b4a1108","90.71.166.235","Mozilla/5.0 (Windows NT 10.0; Win64; x64) AppleWebKit/537.36 (KHTML, like Gecko) Chrome/107.0.0.0 Safari/537.36","WebKit","Chrome","107.0.0.0","Windows","10.0","[0]","","","",""
"12542","","{""Latino"":""Yes"",""Alert"":""Evening""}","demo","63444","survey-multi-choice","89","1478775","0.0-7.0-2.0","36","1","2022-11-29 21:25:03","2df368f4e41f066fd1c82c297b4a1108","90.71.166.235","Mozilla/5.0 (Windows NT 10.0; Win64; x64) AppleWebKit/537.36 (KHTML, like Gecko) Chrome/107.0.0.0 Safari/537.36","WebKit","Chrome","107.0.0.0","Windows","10.0","[0,1]","","","",""
"25069","","{""Q0"":""""}","demo","63444","survey-text","90","1503860","0.0-7.0-3.0","36","1","2022-11-29 21:25:03","2df368f4e41f066fd1c82c297b4a1108","90.71.166.235","Mozilla/5.0 (Windows NT 10.0; Win64; x64) AppleWebKit/537.36 (KHTML, like Gecko) Chrome/107.0.0.0 Safari/537.36","WebKit","Chrome","107.0.0.0","Windows","10.0","","","","",""
"15708","<p>Thank you for participating! </p><strong>Your completion code is: CXEJB7NH. Please copy-paste this code and submit it on Prolific.</strong><p>Click <a href=""https://drive.google.com/file/d/1c70cdHFlc0AaR6RujLWLJwWkv1RbHQJY/view?usp=sharing"" target=""_blank"" rel=""noopener noreferrer"">here</a> to access the debriefing form and know more about our research. <p> Please click the button below to finish the experiment and save your data.</p> <p> IMPORTANT: Please <strong>do not leave this page </strong> without clicking the button below.</p> <p> You may close the tab/window after you click the button below.","0","","","html-button-response","91","1519573","0.0-8.0","36","1","2022-11-29 21:25:03","2df368f4e41f066fd1c82c297b4a1108","90.71.166.235","Mozilla/5.0 (Windows NT 10.0; Win64; x64) AppleWebKit/537.36 (KHTML, like Gecko) Chrome/107.0.0.0 Safari/537.36","WebKit","Chrome","107.0.0.0","Windows","10.0","","","","",""
