"rt","stimulus","response","typeoftrial","subject","trial_type","trial_index","time_elapsed","internal_node_id","run_id","condition","recorded_at","source_code_version","ip","user_agent","device","browser","browser_version","platform","platform_version","question_order","practice_rating","sentence_num","rating","Experiment"
"33927","
        <p style=""font-size:20px;""> Welcome! Thank you for your interest in our study. </p>
        <p style=""font-size:20px;""> This study is being conducted by researchers at Bowdoin College.</p>
        <p style=""font-size:20px;""> In this experiment, you will be asked to rate the accuracy of English and Spanish translations.</p>
        <p style=""font-size:20px;""> The entire experiment should not last more than 20 minutes. You will be paid $3 USD for your participation. </p>
        <p style=""font-size:20px;""> Please click <a href = ""https://drive.google.com/file/d/1L92a02eEKCpaAEipmqDcBCDR7rsarqFE/view?usp=sharing"" target = ""_blank"">here</a> to read the full consent form. </p>
        <p style=""font-size:20px;""> If you agree to participate, please click the button below to continue to experiment instructions.</p>
        ","0","consent","71926","html-button-response","0","33931","0.0-0.0","13","1","2022-11-29 21:24:43","2df368f4e41f066fd1c82c297b4a1108","189.174.56.31","Mozilla/5.0 (Windows NT 10.0; Win64; x64) AppleWebKit/537.36 (KHTML, like Gecko) Chrome/107.0.0.0 Safari/537.36","WebKit","Chrome","107.0.0.0","Windows","10.0","","","","",""
"1940","","{""ID"":""5ddbeaff798297b3928a0850""}","ID","71926","survey-text","1","35876","0.0-1.0","13","1","2022-11-29 21:24:43","2df368f4e41f066fd1c82c297b4a1108","189.174.56.31","Mozilla/5.0 (Windows NT 10.0; Win64; x64) AppleWebKit/537.36 (KHTML, like Gecko) Chrome/107.0.0.0 Safari/537.36","WebKit","Chrome","107.0.0.0","Windows","10.0","","","","",""
"11239","
        <p style=""font-size:20px;""> You are about to begin the practice test. </p>
        <p style=""font-size:20px;""> On each trial, you will see a sentence in English and its corresponding Spanish translation. </p>
        <p style=""font-size:20px;""> You will rate the accuracy of the translation on a scale from ""Not at all accurate"" to ""Very accurate."" </p>
        <p style=""font-size:20px;""> If you rate the translation as ""Somewhat innaccurate"" or ""Not at all accurate,"" you will be asked to provide your own translation or a reason why the translation is inaccurate. </p>
        <p style=""font-size:20px;""> Click the button below to continue to the practice session.</p>","0","instructions","71926","html-button-response","2","47116","0.0-2.0","13","1","2022-11-29 21:24:43","2df368f4e41f066fd1c82c297b4a1108","189.174.56.31","Mozilla/5.0 (Windows NT 10.0; Win64; x64) AppleWebKit/537.36 (KHTML, like Gecko) Chrome/107.0.0.0 Safari/537.36","WebKit","Chrome","107.0.0.0","Windows","10.0","","","","",""
"62584","You drop a rock on a phone <br> T&uacute tiras una piedra a un tel&eacutefono","{""Q0"":3}","practice","71926","survey-likert","3","109703","0.0-3.0-0.0","13","1","2022-11-29 21:24:43","2df368f4e41f066fd1c82c297b4a1108","189.174.56.31","Mozilla/5.0 (Windows NT 10.0; Win64; x64) AppleWebKit/537.36 (KHTML, like Gecko) Chrome/107.0.0.0 Safari/537.36","WebKit","Chrome","107.0.0.0","Windows","10.0","[0]","3","","",""
"10103","You see how a tiger is playing with a goose <br> T&uacute ves como un le&oacuten come una pizza","{""Q0"":0}","practice","71926","survey-likert","4","119811","0.0-3.0-0.1","13","1","2022-11-29 21:24:43","2df368f4e41f066fd1c82c297b4a1108","189.174.56.31","Mozilla/5.0 (Windows NT 10.0; Win64; x64) AppleWebKit/537.36 (KHTML, like Gecko) Chrome/107.0.0.0 Safari/537.36","WebKit","Chrome","107.0.0.0","Windows","10.0","[0]","0","","",""
"28338","You see how a tiger is playing with a goose <br> T&uacute ves como un le&oacuten come una pizza","{""Q0"":""The translation should be about the goose, not pizza""}","practice_low_rate","71926","survey-text","5","148155","0.0-3.0-1.1-0.1","13","1","2022-11-29 21:24:43","2df368f4e41f066fd1c82c297b4a1108","189.174.56.31","Mozilla/5.0 (Windows NT 10.0; Win64; x64) AppleWebKit/537.36 (KHTML, like Gecko) Chrome/107.0.0.0 Safari/537.36","WebKit","Chrome","107.0.0.0","Windows","10.0","","","5","",""
"11812","You see how a teacher is drawing a picture <br> T&uacute ves como un maestro pinta una foto","{""Q0"":4}","practice","71926","survey-likert","6","159968","0.0-3.0-0.2","13","1","2022-11-29 21:24:43","2df368f4e41f066fd1c82c297b4a1108","189.174.56.31","Mozilla/5.0 (Windows NT 10.0; Win64; x64) AppleWebKit/537.36 (KHTML, like Gecko) Chrome/107.0.0.0 Safari/537.36","WebKit","Chrome","107.0.0.0","Windows","10.0","[0]","4","","",""
"4412","You see how an artist is running <br> T&uacute ves como un artista est&aacute corriendo","{""Q0"":4}","practice","71926","survey-likert","7","164385","0.0-3.0-0.3","13","1","2022-11-29 21:24:43","2df368f4e41f066fd1c82c297b4a1108","189.174.56.31","Mozilla/5.0 (Windows NT 10.0; Win64; x64) AppleWebKit/537.36 (KHTML, like Gecko) Chrome/107.0.0.0 Safari/537.36","WebKit","Chrome","107.0.0.0","Windows","10.0","[0]","4","","",""
"5236","You see how a duck is playing with a pumpkin <br> T&uacute ves como un pato est&aacute jugando con una calabaza","{""Q0"":4}","practice","71926","survey-likert","8","169626","0.0-3.0-0.4","13","1","2022-11-29 21:24:43","2df368f4e41f066fd1c82c297b4a1108","189.174.56.31","Mozilla/5.0 (Windows NT 10.0; Win64; x64) AppleWebKit/537.36 (KHTML, like Gecko) Chrome/107.0.0.0 Safari/537.36","WebKit","Chrome","107.0.0.0","Windows","10.0","[0]","4","","",""
"7527","You drop a bowling ball on a mircrowave <br> T&uacute tiras una bola de boliche a un horno","{""Q0"":3}","practice","71926","survey-likert","9","177158","0.0-3.0-0.5","13","1","2022-11-29 21:24:43","2df368f4e41f066fd1c82c297b4a1108","189.174.56.31","Mozilla/5.0 (Windows NT 10.0; Win64; x64) AppleWebKit/537.36 (KHTML, like Gecko) Chrome/107.0.0.0 Safari/537.36","WebKit","Chrome","107.0.0.0","Windows","10.0","[0]","3","","",""
"2801","<p style=""font-size:20px;"">You have now completed the practice session! </p>
        <p style=""font-size:20px;"">You will now move on to the main experiment. </p>
        <p style=""font-size:20px;"">Please click the button below to continue. </p>","0","movetoexp","71926","html-button-response","10","179964","0.0-4.0","13","1","2022-11-29 21:24:43","2df368f4e41f066fd1c82c297b4a1108","189.174.56.31","Mozilla/5.0 (Windows NT 10.0; Win64; x64) AppleWebKit/537.36 (KHTML, like Gecko) Chrome/107.0.0.0 Safari/537.36","WebKit","Chrome","107.0.0.0","Windows","10.0","","","","",""
"13787","You drop a bowling ball on a ceramic plate <br> T&uacute tiras una bola de boliche a un plato de cer&aacutemica","{""Q0"":3}","trial","71926","survey-likert","11","193752","0.0-5.0-0.0","13","1","2022-11-29 21:24:43","2df368f4e41f066fd1c82c297b4a1108","189.174.56.31","Mozilla/5.0 (Windows NT 10.0; Win64; x64) AppleWebKit/537.36 (KHTML, like Gecko) Chrome/107.0.0.0 Safari/537.36","WebKit","Chrome","107.0.0.0","Windows","10.0","[0]","","19","3",""
"3611","You see how a panda is resting on a tree <br> T&uacute ves como un panda est&aacute descansando en un &aacuterbol","{""Q0"":4}","trial","71926","survey-likert","12","197368","0.0-5.0-0.1","13","1","2022-11-29 21:24:43","2df368f4e41f066fd1c82c297b4a1108","189.174.56.31","Mozilla/5.0 (Windows NT 10.0; Win64; x64) AppleWebKit/537.36 (KHTML, like Gecko) Chrome/107.0.0.0 Safari/537.36","WebKit","Chrome","107.0.0.0","Windows","10.0","[0]","","57","4",""
"11682","You drop a bowling ball on an iPAD <br> T&uacute tiras una bola de boliche a un iPad","{""Q0"":3}","trial","71926","survey-likert","13","209055","0.0-5.0-0.2","13","1","2022-11-29 21:24:43","2df368f4e41f066fd1c82c297b4a1108","189.174.56.31","Mozilla/5.0 (Windows NT 10.0; Win64; x64) AppleWebKit/537.36 (KHTML, like Gecko) Chrome/107.0.0.0 Safari/537.36","WebKit","Chrome","107.0.0.0","Windows","10.0","[0]","","12","3",""
"14694","You drop a remote on the rug <br> T&uacute tiras un control remoto a la alfombra","{""Q0"":3}","trial","71926","survey-likert","14","223753","0.0-5.0-0.3","13","1","2022-11-29 21:24:43","2df368f4e41f066fd1c82c297b4a1108","189.174.56.31","Mozilla/5.0 (Windows NT 10.0; Win64; x64) AppleWebKit/537.36 (KHTML, like Gecko) Chrome/107.0.0.0 Safari/537.36","WebKit","Chrome","107.0.0.0","Windows","10.0","[0]","","39","3",""
"10737","You drop a ring on the newspaper <br> T&uacute tiras un anillo al peri&oacutedico","{""Q0"":3}","trial","71926","survey-likert","15","234498","0.0-5.0-0.4","13","1","2022-11-29 21:24:43","2df368f4e41f066fd1c82c297b4a1108","189.174.56.31","Mozilla/5.0 (Windows NT 10.0; Win64; x64) AppleWebKit/537.36 (KHTML, like Gecko) Chrome/107.0.0.0 Safari/537.36","WebKit","Chrome","107.0.0.0","Windows","10.0","[0]","","41","3",""
"8729","You drop a bowling ball on a hat <br> T&uacute tiras una bola de boliche a una gorra","{""Q0"":3}","trial","71926","survey-likert","16","243232","0.0-5.0-0.5","13","1","2022-11-29 21:24:43","2df368f4e41f066fd1c82c297b4a1108","189.174.56.31","Mozilla/5.0 (Windows NT 10.0; Win64; x64) AppleWebKit/537.36 (KHTML, like Gecko) Chrome/107.0.0.0 Safari/537.36","WebKit","Chrome","107.0.0.0","Windows","10.0","[0]","","10","3",""
"4961","You drop a bowling ball on a cracker <br> T&uacute tiras una bola de boliche a una galleta","{""Q0"":3}","trial","71926","survey-likert","17","248199","0.0-5.0-0.6","13","1","2022-11-29 21:24:43","2df368f4e41f066fd1c82c297b4a1108","189.174.56.31","Mozilla/5.0 (Windows NT 10.0; Win64; x64) AppleWebKit/537.36 (KHTML, like Gecko) Chrome/107.0.0.0 Safari/537.36","WebKit","Chrome","107.0.0.0","Windows","10.0","[0]","","4","3",""
"4295","You see how a man is shaving his beard <br> T&uacute ves como un hombre se est&aacute afeitando la barba","{""Q0"":4}","trial","71926","survey-likert","18","252499","0.0-5.0-0.7","13","1","2022-11-29 21:24:43","2df368f4e41f066fd1c82c297b4a1108","189.174.56.31","Mozilla/5.0 (Windows NT 10.0; Win64; x64) AppleWebKit/537.36 (KHTML, like Gecko) Chrome/107.0.0.0 Safari/537.36","WebKit","Chrome","107.0.0.0","Windows","10.0","[0]","","43","4",""
"7456","You drop a cabbage on the table <br> T&uacute tiras una col a la mesa","{""Q0"":3}","trial","71926","survey-likert","19","259960","0.0-5.0-0.8","13","1","2022-11-29 21:24:43","2df368f4e41f066fd1c82c297b4a1108","189.174.56.31","Mozilla/5.0 (Windows NT 10.0; Win64; x64) AppleWebKit/537.36 (KHTML, like Gecko) Chrome/107.0.0.0 Safari/537.36","WebKit","Chrome","107.0.0.0","Windows","10.0","[0]","","35","3",""
"9749","You drop a thermometer on the box <br> T&uacute tiras un term&oacutemetro a la caja","{""Q0"":3}","trial","71926","survey-likert","20","269715","0.0-5.0-0.9","13","1","2022-11-29 21:24:43","2df368f4e41f066fd1c82c297b4a1108","189.174.56.31","Mozilla/5.0 (Windows NT 10.0; Win64; x64) AppleWebKit/537.36 (KHTML, like Gecko) Chrome/107.0.0.0 Safari/537.36","WebKit","Chrome","107.0.0.0","Windows","10.0","[0]","","70","3",""
"8035","You drop a cushion on the magazine <br> T&uacute tiras un coj&iacuten a la revista","{""Q0"":3}","trial","71926","survey-likert","21","277756","0.0-5.0-0.10","13","1","2022-11-29 21:24:43","2df368f4e41f066fd1c82c297b4a1108","189.174.56.31","Mozilla/5.0 (Windows NT 10.0; Win64; x64) AppleWebKit/537.36 (KHTML, like Gecko) Chrome/107.0.0.0 Safari/537.36","WebKit","Chrome","107.0.0.0","Windows","10.0","[0]","","38","3",""
"19295","You see how a woman is taking money out of a wallet <br> T&uacute ves como una mujer est&aacute sacando dinero de su billetera","{""Q0"":1}","trial","71926","survey-likert","22","297055","0.0-5.0-0.11","13","1","2022-11-29 21:24:43","2df368f4e41f066fd1c82c297b4a1108","189.174.56.31","Mozilla/5.0 (Windows NT 10.0; Win64; x64) AppleWebKit/537.36 (KHTML, like Gecko) Chrome/107.0.0.0 Safari/537.36","WebKit","Chrome","107.0.0.0","Windows","10.0","[0]","","44","1",""
"17925","You see how a woman is taking money out of a wallet <br> T&uacute ves como una mujer est&aacute sacando dinero de su billetera","{""Q0"":""It says she's taking it out of HER wallet, not just out of a wallet""}","low_rate","71926","survey-text","23","314986","0.0-5.0-1.11-0.11","13","1","2022-11-29 21:24:43","2df368f4e41f066fd1c82c297b4a1108","189.174.56.31","Mozilla/5.0 (Windows NT 10.0; Win64; x64) AppleWebKit/537.36 (KHTML, like Gecko) Chrome/107.0.0.0 Safari/537.36","WebKit","Chrome","107.0.0.0","Windows","10.0","","","44","",""
"40053","You see how a horse is chewing hay <br> T&uacute ves como un caballo est&aacute masticando el heno","{""Q0"":4}","trial","71926","survey-likert","24","355040","0.0-5.0-0.12","13","1","2022-11-29 21:24:43","2df368f4e41f066fd1c82c297b4a1108","189.174.56.31","Mozilla/5.0 (Windows NT 10.0; Win64; x64) AppleWebKit/537.36 (KHTML, like Gecko) Chrome/107.0.0.0 Safari/537.36","WebKit","Chrome","107.0.0.0","Windows","10.0","[0]","","55","4",""
"4217","You see how a kitten is playing in the sandbox <br> T&uacute ves como un gatito est&aacute jugando en la caja de arena","{""Q0"":4}","trial","71926","survey-likert","25","359262","0.0-5.0-0.13","13","1","2022-11-29 21:24:43","2df368f4e41f066fd1c82c297b4a1108","189.174.56.31","Mozilla/5.0 (Windows NT 10.0; Win64; x64) AppleWebKit/537.36 (KHTML, like Gecko) Chrome/107.0.0.0 Safari/537.36","WebKit","Chrome","107.0.0.0","Windows","10.0","[0]","","52","4",""
"4386","You drop a bowling ball on a piece of sushi <br> T&uacute tiras una bola de boliche a un pedazo de sushi","{""Q0"":3}","trial","71926","survey-likert","26","363652","0.0-5.0-0.14","13","1","2022-11-29 21:24:43","2df368f4e41f066fd1c82c297b4a1108","189.174.56.31","Mozilla/5.0 (Windows NT 10.0; Win64; x64) AppleWebKit/537.36 (KHTML, like Gecko) Chrome/107.0.0.0 Safari/537.36","WebKit","Chrome","107.0.0.0","Windows","10.0","[0]","","21","3",""
"6755","You see how a puppy is playing with a ball <br> T&uacute ves como un cachorro est&aacute jugando con una pelota","{""Q0"":4}","trial","71926","survey-likert","27","370412","0.0-5.0-0.15","13","1","2022-11-29 21:24:43","2df368f4e41f066fd1c82c297b4a1108","189.174.56.31","Mozilla/5.0 (Windows NT 10.0; Win64; x64) AppleWebKit/537.36 (KHTML, like Gecko) Chrome/107.0.0.0 Safari/537.36","WebKit","Chrome","107.0.0.0","Windows","10.0","[0]","","34","4",""
"21931","You see how a postman is driving a car <br> T&uacute ves como un cartero est&aacute conduciendo un coche","{""Q0"":4}","trial","71926","survey-likert","28","392349","0.0-5.0-0.16","13","1","2022-11-29 21:24:43","2df368f4e41f066fd1c82c297b4a1108","189.174.56.31","Mozilla/5.0 (Windows NT 10.0; Win64; x64) AppleWebKit/537.36 (KHTML, like Gecko) Chrome/107.0.0.0 Safari/537.36","WebKit","Chrome","107.0.0.0","Windows","10.0","[0]","","32","4",""
"22501","You see how an actress is taking a microphone <br> T&uacute ves como una actriz est&aacute agarrando el micr&oacutefono","{""Q0"":1}","trial","71926","survey-likert","29","414856","0.0-5.0-0.17","13","1","2022-11-29 21:24:43","2df368f4e41f066fd1c82c297b4a1108","189.174.56.31","Mozilla/5.0 (Windows NT 10.0; Win64; x64) AppleWebKit/537.36 (KHTML, like Gecko) Chrome/107.0.0.0 Safari/537.36","WebKit","Chrome","107.0.0.0","Windows","10.0","[0]","","51","1",""
"43153","You see how an actress is taking a microphone <br> T&uacute ves como una actriz est&aacute agarrando el micr&oacutefono","{""Q0"":""It should be \""un micrófono\"" not \""el micrófono\""""}","low_rate","71926","survey-text","30","458014","0.0-5.0-1.17-0.17","13","1","2022-11-29 21:24:43","2df368f4e41f066fd1c82c297b4a1108","189.174.56.31","Mozilla/5.0 (Windows NT 10.0; Win64; x64) AppleWebKit/537.36 (KHTML, like Gecko) Chrome/107.0.0.0 Safari/537.36","WebKit","Chrome","107.0.0.0","Windows","10.0","","","51","",""
"5802","You see how a parrot is eating an apple <br> T&uacute ves como un loro est&aacute comiendo una manzana","{""Q0"":4}","trial","71926","survey-likert","31","463817","0.0-5.0-0.18","13","1","2022-11-29 21:24:43","2df368f4e41f066fd1c82c297b4a1108","189.174.56.31","Mozilla/5.0 (Windows NT 10.0; Win64; x64) AppleWebKit/537.36 (KHTML, like Gecko) Chrome/107.0.0.0 Safari/537.36","WebKit","Chrome","107.0.0.0","Windows","10.0","[0]","","58","4",""
"5627","You see how a man is playing with a cat <br> T&uacute ves como un hombre est&aacute jugando con un gato","{""Q0"":4}","trial","71926","survey-likert","32","469449","0.0-5.0-0.19","13","1","2022-11-29 21:24:43","2df368f4e41f066fd1c82c297b4a1108","189.174.56.31","Mozilla/5.0 (Windows NT 10.0; Win64; x64) AppleWebKit/537.36 (KHTML, like Gecko) Chrome/107.0.0.0 Safari/537.36","WebKit","Chrome","107.0.0.0","Windows","10.0","[0]","","67","4",""
"7604","You drop a bowling ball on a mirror <br> T&uacute tiras una bola de boliche a un espejo","{""Q0"":3}","trial","71926","survey-likert","33","477057","0.0-5.0-0.20","13","1","2022-11-29 21:24:43","2df368f4e41f066fd1c82c297b4a1108","189.174.56.31","Mozilla/5.0 (Windows NT 10.0; Win64; x64) AppleWebKit/537.36 (KHTML, like Gecko) Chrome/107.0.0.0 Safari/537.36","WebKit","Chrome","107.0.0.0","Windows","10.0","[0]","","15","3",""
"7776","You drop a bowling ball on a chocolate ice-cream <br> T&uacute tiras una bola de boliche a un helado de chocolate","{""Q0"":3}","trial","71926","survey-likert","34","484838","0.0-5.0-0.21","13","1","2022-11-29 21:24:43","2df368f4e41f066fd1c82c297b4a1108","189.174.56.31","Mozilla/5.0 (Windows NT 10.0; Win64; x64) AppleWebKit/537.36 (KHTML, like Gecko) Chrome/107.0.0.0 Safari/537.36","WebKit","Chrome","107.0.0.0","Windows","10.0","[0]","","11","3",""
"3620","You see how a pilot is reading a book <br> T&uacute ves como un piloto est&aacute leyendo un libro","{""Q0"":4}","trial","71926","survey-likert","35","488464","0.0-5.0-0.22","13","1","2022-11-29 21:24:43","2df368f4e41f066fd1c82c297b4a1108","189.174.56.31","Mozilla/5.0 (Windows NT 10.0; Win64; x64) AppleWebKit/537.36 (KHTML, like Gecko) Chrome/107.0.0.0 Safari/537.36","WebKit","Chrome","107.0.0.0","Windows","10.0","[0]","","61","4",""
"11989","You see how a teenage girl is playing the piano <br> T&uacute ves como una ni&ntildea adolescente est&aacute tocando el piano","{""Q0"":4}","trial","71926","survey-likert","36","500457","0.0-5.0-0.23","13","1","2022-11-29 21:24:43","2df368f4e41f066fd1c82c297b4a1108","189.174.56.31","Mozilla/5.0 (Windows NT 10.0; Win64; x64) AppleWebKit/537.36 (KHTML, like Gecko) Chrome/107.0.0.0 Safari/537.36","WebKit","Chrome","107.0.0.0","Windows","10.0","[0]","","54","4",""
"8753","You drop a bowling ball on a porcelain figure <br> T&uacute tiras una bola de boliche a una figura de porcelana","{""Q0"":3}","trial","71926","survey-likert","37","509216","0.0-5.0-0.24","13","1","2022-11-29 21:24:43","2df368f4e41f066fd1c82c297b4a1108","189.174.56.31","Mozilla/5.0 (Windows NT 10.0; Win64; x64) AppleWebKit/537.36 (KHTML, like Gecko) Chrome/107.0.0.0 Safari/537.36","WebKit","Chrome","107.0.0.0","Windows","10.0","[0]","","1","3",""
"9188","You drop a bowling ball on a light bulb <br> T&uacute tiras una bola de boliche a una bombilla","{""Q0"":3}","trial","71926","survey-likert","38","518409","0.0-5.0-0.25","13","1","2022-11-29 21:24:43","2df368f4e41f066fd1c82c297b4a1108","189.174.56.31","Mozilla/5.0 (Windows NT 10.0; Win64; x64) AppleWebKit/537.36 (KHTML, like Gecko) Chrome/107.0.0.0 Safari/537.36","WebKit","Chrome","107.0.0.0","Windows","10.0","[0]","","14","3",""
"17062","You see how a boy is peeling a banana <br> T&uacute ves como un ni&ntildeo est&aacute pelando una banana","{""Q0"":4}","trial","71926","survey-likert","39","535478","0.0-5.0-0.26","13","1","2022-11-29 21:24:43","2df368f4e41f066fd1c82c297b4a1108","189.174.56.31","Mozilla/5.0 (Windows NT 10.0; Win64; x64) AppleWebKit/537.36 (KHTML, like Gecko) Chrome/107.0.0.0 Safari/537.36","WebKit","Chrome","107.0.0.0","Windows","10.0","[0]","","30","4",""
"7691","You see how a hairdresser is taking scissors <br> T&uacute ves como una peluquera est&aacute agarrando las tijeras","{""Q0"":3}","trial","71926","survey-likert","40","543175","0.0-5.0-0.27","13","1","2022-11-29 21:24:43","2df368f4e41f066fd1c82c297b4a1108","189.174.56.31","Mozilla/5.0 (Windows NT 10.0; Win64; x64) AppleWebKit/537.36 (KHTML, like Gecko) Chrome/107.0.0.0 Safari/537.36","WebKit","Chrome","107.0.0.0","Windows","10.0","[0]","","60","3",""
"4349","You see how a butterfly is sitting on a flower <br> T&uacute ves como una mariposa est&aacute reposando en una flor","{""Q0"":4}","trial","71926","survey-likert","41","547528","0.0-5.0-0.28","13","1","2022-11-29 21:24:43","2df368f4e41f066fd1c82c297b4a1108","189.174.56.31","Mozilla/5.0 (Windows NT 10.0; Win64; x64) AppleWebKit/537.36 (KHTML, like Gecko) Chrome/107.0.0.0 Safari/537.36","WebKit","Chrome","107.0.0.0","Windows","10.0","[0]","","59","4",""
"6380","You see how a dentist is drinking a can of cola <br> T&uacute ves como un dentista est&aacute bebiendo una lata de cola","{""Q0"":4}","trial","71926","survey-likert","42","553914","0.0-5.0-0.29","13","1","2022-11-29 21:24:43","2df368f4e41f066fd1c82c297b4a1108","189.174.56.31","Mozilla/5.0 (Windows NT 10.0; Win64; x64) AppleWebKit/537.36 (KHTML, like Gecko) Chrome/107.0.0.0 Safari/537.36","WebKit","Chrome","107.0.0.0","Windows","10.0","[0]","","47","4",""
"4913","You see how a musician is playing a guitar <br> T&uacute ves como un m&uacutesico est&aacute tocando la guitarra","{""Q0"":4}","trial","71926","survey-likert","43","558832","0.0-5.0-0.30","13","1","2022-11-29 21:24:43","2df368f4e41f066fd1c82c297b4a1108","189.174.56.31","Mozilla/5.0 (Windows NT 10.0; Win64; x64) AppleWebKit/537.36 (KHTML, like Gecko) Chrome/107.0.0.0 Safari/537.36","WebKit","Chrome","107.0.0.0","Windows","10.0","[0]","","27","4",""
"6740","You drop a bowling ball on a blackberry <br> T&uacute tiras una bola de boliche a una mora","{""Q0"":3}","trial","71926","survey-likert","44","565577","0.0-5.0-0.31","13","1","2022-11-29 21:24:43","2df368f4e41f066fd1c82c297b4a1108","189.174.56.31","Mozilla/5.0 (Windows NT 10.0; Win64; x64) AppleWebKit/537.36 (KHTML, like Gecko) Chrome/107.0.0.0 Safari/537.36","WebKit","Chrome","107.0.0.0","Windows","10.0","[0]","","8","3",""
"5616","You drop a watch on the laptop <br> T&uacute tiras un reloj al port&aacutetil","{""Q0"":3}","trial","71926","survey-likert","45","571198","0.0-5.0-0.32","13","1","2022-11-29 21:24:43","2df368f4e41f066fd1c82c297b4a1108","189.174.56.31","Mozilla/5.0 (Windows NT 10.0; Win64; x64) AppleWebKit/537.36 (KHTML, like Gecko) Chrome/107.0.0.0 Safari/537.36","WebKit","Chrome","107.0.0.0","Windows","10.0","[0]","","37","3",""
"4601","You drop a bowling ball on a wine glass <br> T&uacute tiras una bola de boliche a una copa de vino","{""Q0"":3}","trial","71926","survey-likert","46","575805","0.0-5.0-0.33","13","1","2022-11-29 21:24:43","2df368f4e41f066fd1c82c297b4a1108","189.174.56.31","Mozilla/5.0 (Windows NT 10.0; Win64; x64) AppleWebKit/537.36 (KHTML, like Gecko) Chrome/107.0.0.0 Safari/537.36","WebKit","Chrome","107.0.0.0","Windows","10.0","[0]","","5","3",""
"4440","You drop a bowling ball on a strawberry <br> T&uacute tiras una bola de boliche a una fresa","{""Q0"":3}","trial","71926","survey-likert","47","580250","0.0-5.0-0.34","13","1","2022-11-29 21:24:43","2df368f4e41f066fd1c82c297b4a1108","189.174.56.31","Mozilla/5.0 (Windows NT 10.0; Win64; x64) AppleWebKit/537.36 (KHTML, like Gecko) Chrome/107.0.0.0 Safari/537.36","WebKit","Chrome","107.0.0.0","Windows","10.0","[0]","","20","3",""
"12846","You drop a needle on the mouse pad <br> T&uacute tiras una aguja a la alfombrilla para el rat&oacuten","{""Q0"":3}","trial","71926","survey-likert","48","593101","0.0-5.0-0.35","13","1","2022-11-29 21:24:43","2df368f4e41f066fd1c82c297b4a1108","189.174.56.31","Mozilla/5.0 (Windows NT 10.0; Win64; x64) AppleWebKit/537.36 (KHTML, like Gecko) Chrome/107.0.0.0 Safari/537.36","WebKit","Chrome","107.0.0.0","Windows","10.0","[0]","","42","3",""
"9983","You see how a student is writing on a board <br> T&uacute ves como un estudiante est&aacute escribiendo en la pizarra","{""Q0"":4}","trial","71926","survey-likert","49","603090","0.0-5.0-0.36","13","1","2022-11-29 21:24:43","2df368f4e41f066fd1c82c297b4a1108","189.174.56.31","Mozilla/5.0 (Windows NT 10.0; Win64; x64) AppleWebKit/537.36 (KHTML, like Gecko) Chrome/107.0.0.0 Safari/537.36","WebKit","Chrome","107.0.0.0","Windows","10.0","[0]","","50","4",""
"6391","You drop a bowling ball on an egg flan <br> T&uacute tiras una bola de boliche a un flan","{""Q0"":3}","trial","71926","survey-likert","50","609487","0.0-5.0-0.37","13","1","2022-11-29 21:24:43","2df368f4e41f066fd1c82c297b4a1108","189.174.56.31","Mozilla/5.0 (Windows NT 10.0; Win64; x64) AppleWebKit/537.36 (KHTML, like Gecko) Chrome/107.0.0.0 Safari/537.36","WebKit","Chrome","107.0.0.0","Windows","10.0","[0]","","7","3",""
"5933","You see how an old man is hammering a nail <br> T&uacute ves como un hombre anciano est&aacute martillando un clavo","{""Q0"":4}","trial","71926","survey-likert","51","615426","0.0-5.0-0.38","13","1","2022-11-29 21:24:43","2df368f4e41f066fd1c82c297b4a1108","189.174.56.31","Mozilla/5.0 (Windows NT 10.0; Win64; x64) AppleWebKit/537.36 (KHTML, like Gecko) Chrome/107.0.0.0 Safari/537.36","WebKit","Chrome","107.0.0.0","Windows","10.0","[0]","","29","4",""
"4314","You see how a donkey is drinking water <br> T&uacute ves como un burro est&aacute bebiendo agua","{""Q0"":4}","trial","71926","survey-likert","52","619746","0.0-5.0-0.39","13","1","2022-11-29 21:24:43","2df368f4e41f066fd1c82c297b4a1108","189.174.56.31","Mozilla/5.0 (Windows NT 10.0; Win64; x64) AppleWebKit/537.36 (KHTML, like Gecko) Chrome/107.0.0.0 Safari/537.36","WebKit","Chrome","107.0.0.0","Windows","10.0","[0]","","45","4",""
"5546","You see how a giraffe is playing with a zebra <br> T&uacute ves como una jirafa est&aacute jugando con una cebra","{""Q0"":4}","trial","71926","survey-likert","53","625298","0.0-5.0-0.40","13","1","2022-11-29 21:24:43","2df368f4e41f066fd1c82c297b4a1108","189.174.56.31","Mozilla/5.0 (Windows NT 10.0; Win64; x64) AppleWebKit/537.36 (KHTML, like Gecko) Chrome/107.0.0.0 Safari/537.36","WebKit","Chrome","107.0.0.0","Windows","10.0","[0]","","65","4",""
"7186","You see how a cat is drinking water from a bowl <br> T&uacute ves como un gato est&aacute bebiendo agua de un cuenco","{""Q0"":4}","trial","71926","survey-likert","54","632489","0.0-5.0-0.41","13","1","2022-11-29 21:24:43","2df368f4e41f066fd1c82c297b4a1108","189.174.56.31","Mozilla/5.0 (Windows NT 10.0; Win64; x64) AppleWebKit/537.36 (KHTML, like Gecko) Chrome/107.0.0.0 Safari/537.36","WebKit","Chrome","107.0.0.0","Windows","10.0","[0]","","28","4",""
"4904","You see how a doctor is taking a stethoscope <br> T&uacute ves como un doctor est&aacute agarrando un estetoscopio","{""Q0"":3}","trial","71926","survey-likert","55","637398","0.0-5.0-0.42","13","1","2022-11-29 21:24:43","2df368f4e41f066fd1c82c297b4a1108","189.174.56.31","Mozilla/5.0 (Windows NT 10.0; Win64; x64) AppleWebKit/537.36 (KHTML, like Gecko) Chrome/107.0.0.0 Safari/537.36","WebKit","Chrome","107.0.0.0","Windows","10.0","[0]","","49","3",""
"21278","You see how a mouse is eating cheese <br> T&uacute ves como el rat&oacuten est&aacute comiendo queso","{""Q0"":1}","trial","71926","survey-likert","56","658681","0.0-5.0-0.43","13","1","2022-11-29 21:24:43","2df368f4e41f066fd1c82c297b4a1108","189.174.56.31","Mozilla/5.0 (Windows NT 10.0; Win64; x64) AppleWebKit/537.36 (KHTML, like Gecko) Chrome/107.0.0.0 Safari/537.36","WebKit","Chrome","107.0.0.0","Windows","10.0","[0]","","56","1",""
"11953","You see how a mouse is eating cheese <br> T&uacute ves como el rat&oacuten est&aacute comiendo queso","{""Q0"":""it should be \""un ratón\"", not \""el ratón\""""}","low_rate","71926","survey-text","57","670641","0.0-5.0-1.43-0.43","13","1","2022-11-29 21:24:43","2df368f4e41f066fd1c82c297b4a1108","189.174.56.31","Mozilla/5.0 (Windows NT 10.0; Win64; x64) AppleWebKit/537.36 (KHTML, like Gecko) Chrome/107.0.0.0 Safari/537.36","WebKit","Chrome","107.0.0.0","Windows","10.0","","","56","",""
"2750","You drop a keyboard on the bed <br> T&uacute tiras un teclado a la cama","{""Q0"":3}","trial","71926","survey-likert","58","673393","0.0-5.0-0.44","13","1","2022-11-29 21:24:43","2df368f4e41f066fd1c82c297b4a1108","189.174.56.31","Mozilla/5.0 (Windows NT 10.0; Win64; x64) AppleWebKit/537.36 (KHTML, like Gecko) Chrome/107.0.0.0 Safari/537.36","WebKit","Chrome","107.0.0.0","Windows","10.0","[0]","","36","3",""
"2733","You drop a fork on the plate <br> T&uacute tiras un tenedor al plato","{""Q0"":3}","trial","71926","survey-likert","59","676131","0.0-5.0-0.45","13","1","2022-11-29 21:24:43","2df368f4e41f066fd1c82c297b4a1108","189.174.56.31","Mozilla/5.0 (Windows NT 10.0; Win64; x64) AppleWebKit/537.36 (KHTML, like Gecko) Chrome/107.0.0.0 Safari/537.36","WebKit","Chrome","107.0.0.0","Windows","10.0","[0]","","26","3",""
"6724","You see how a photographer is taking a photo of a lion <br> T&uacute ves como un fot&oacutegrafo est&aacute tomando una foto de un le&oacuten","{""Q0"":4}","trial","71926","survey-likert","60","682860","0.0-5.0-0.46","13","1","2022-11-29 21:24:43","2df368f4e41f066fd1c82c297b4a1108","189.174.56.31","Mozilla/5.0 (Windows NT 10.0; Win64; x64) AppleWebKit/537.36 (KHTML, like Gecko) Chrome/107.0.0.0 Safari/537.36","WebKit","Chrome","107.0.0.0","Windows","10.0","[0]","","72","4",""
"5144","You see how a president is writing in the notebook <br> T&uacute ves como un presidente est&aacute escribiendo en la libreta","{""Q0"":4}","trial","71926","survey-likert","61","688010","0.0-5.0-0.47","13","1","2022-11-29 21:24:43","2df368f4e41f066fd1c82c297b4a1108","189.174.56.31","Mozilla/5.0 (Windows NT 10.0; Win64; x64) AppleWebKit/537.36 (KHTML, like Gecko) Chrome/107.0.0.0 Safari/537.36","WebKit","Chrome","107.0.0.0","Windows","10.0","[0]","","63","4",""
"23689","You see how a man is boiling potatoes <br> T&uacute ves a un hombre est&aacute hirviendo papas","{""Q0"":0}","trial","71926","survey-likert","62","711705","0.0-5.0-0.48","13","1","2022-11-29 21:24:43","2df368f4e41f066fd1c82c297b4a1108","189.174.56.31","Mozilla/5.0 (Windows NT 10.0; Win64; x64) AppleWebKit/537.36 (KHTML, like Gecko) Chrome/107.0.0.0 Safari/537.36","WebKit","Chrome","107.0.0.0","Windows","10.0","[0]","","46","0",""
"32245","You see how a man is boiling potatoes <br> T&uacute ves a un hombre est&aacute hirviendo papas","{""Q0"":""It should be \""Tú ves cómo un hombre está hirviendo papas\""""}","low_rate","71926","survey-text","63","743955","0.0-5.0-1.48-0.48","13","1","2022-11-29 21:24:43","2df368f4e41f066fd1c82c297b4a1108","189.174.56.31","Mozilla/5.0 (Windows NT 10.0; Win64; x64) AppleWebKit/537.36 (KHTML, like Gecko) Chrome/107.0.0.0 Safari/537.36","WebKit","Chrome","107.0.0.0","Windows","10.0","","","46","",""
"7574","You drop a bowling ball on a paper cup <br> T&uacute tiras una bola de boliche a un vaso de papel","{""Q0"":3}","trial","71926","survey-likert","64","751532","0.0-5.0-0.49","13","1","2022-11-29 21:24:43","2df368f4e41f066fd1c82c297b4a1108","189.174.56.31","Mozilla/5.0 (Windows NT 10.0; Win64; x64) AppleWebKit/537.36 (KHTML, like Gecko) Chrome/107.0.0.0 Safari/537.36","WebKit","Chrome","107.0.0.0","Windows","10.0","[0]","","24","3",""
"3767","You drop a bowling ball on an empty can of beer <br> T&uacute tiras una bola de boliche a una lata de cerveza vac&iacutea","{""Q0"":3}","trial","71926","survey-likert","65","755305","0.0-5.0-0.50","13","1","2022-11-29 21:24:43","2df368f4e41f066fd1c82c297b4a1108","189.174.56.31","Mozilla/5.0 (Windows NT 10.0; Win64; x64) AppleWebKit/537.36 (KHTML, like Gecko) Chrome/107.0.0.0 Safari/537.36","WebKit","Chrome","107.0.0.0","Windows","10.0","[0]","","3","3",""
"3669","You drop a bowling ball on a tomato <br> T&uacute tiras una bola de boliche a un tomate","{""Q0"":3}","trial","71926","survey-likert","66","758980","0.0-5.0-0.51","13","1","2022-11-29 21:24:43","2df368f4e41f066fd1c82c297b4a1108","189.174.56.31","Mozilla/5.0 (Windows NT 10.0; Win64; x64) AppleWebKit/537.36 (KHTML, like Gecko) Chrome/107.0.0.0 Safari/537.36","WebKit","Chrome","107.0.0.0","Windows","10.0","[0]","","23","3",""
"4506","You see how a thief is stealing a wallet <br> T&uacute ves como un ladr&oacuten est&aacute robando una billetera","{""Q0"":4}","trial","71926","survey-likert","67","763491","0.0-5.0-0.52","13","1","2022-11-29 21:24:43","2df368f4e41f066fd1c82c297b4a1108","189.174.56.31","Mozilla/5.0 (Windows NT 10.0; Win64; x64) AppleWebKit/537.36 (KHTML, like Gecko) Chrome/107.0.0.0 Safari/537.36","WebKit","Chrome","107.0.0.0","Windows","10.0","[0]","","68","4",""
"8657","You see how an elephant is eating a watermelon <br> T&uacute ves como un elefante est&aacute comiendo una sand&iacutea","{""Q0"":4}","trial","71926","survey-likert","68","772154","0.0-5.0-0.53","13","1","2022-11-29 21:24:43","2df368f4e41f066fd1c82c297b4a1108","189.174.56.31","Mozilla/5.0 (Windows NT 10.0; Win64; x64) AppleWebKit/537.36 (KHTML, like Gecko) Chrome/107.0.0.0 Safari/537.36","WebKit","Chrome","107.0.0.0","Windows","10.0","[0]","","31","4",""
"5593","You see how a cook is taking a knife <br> T&uacute ves como un cocinero est&aacute agarrando un cuchillo","{""Q0"":3}","trial","71926","survey-likert","69","777754","0.0-5.0-0.54","13","1","2022-11-29 21:24:43","2df368f4e41f066fd1c82c297b4a1108","189.174.56.31","Mozilla/5.0 (Windows NT 10.0; Win64; x64) AppleWebKit/537.36 (KHTML, like Gecko) Chrome/107.0.0.0 Safari/537.36","WebKit","Chrome","107.0.0.0","Windows","10.0","[0]","","71","3",""
"14808","You drop a bowling ball on a chocolate muffin <br> T&uacute tiras una bola de boliche a una magdalena de chocolate","{""Q0"":3}","trial","71926","survey-likert","70","792569","0.0-5.0-0.55","13","1","2022-11-29 21:24:43","2df368f4e41f066fd1c82c297b4a1108","189.174.56.31","Mozilla/5.0 (Windows NT 10.0; Win64; x64) AppleWebKit/537.36 (KHTML, like Gecko) Chrome/107.0.0.0 Safari/537.36","WebKit","Chrome","107.0.0.0","Windows","10.0","[0]","","16","3",""
"2604","You drop a bowling ball on a donut <br> T&uacute tiras una bola de boliche a una rosquilla","{""Q0"":3}","trial","71926","survey-likert","71","795179","0.0-5.0-0.56","13","1","2022-11-29 21:24:43","2df368f4e41f066fd1c82c297b4a1108","189.174.56.31","Mozilla/5.0 (Windows NT 10.0; Win64; x64) AppleWebKit/537.36 (KHTML, like Gecko) Chrome/107.0.0.0 Safari/537.36","WebKit","Chrome","107.0.0.0","Windows","10.0","[0]","","17","3",""
"13028","You drop a bowling ball on glasses <br> T&uacute tiras una bola de boliche a unas gafas","{""Q0"":3}","trial","71926","survey-likert","72","808213","0.0-5.0-0.57","13","1","2022-11-29 21:24:43","2df368f4e41f066fd1c82c297b4a1108","189.174.56.31","Mozilla/5.0 (Windows NT 10.0; Win64; x64) AppleWebKit/537.36 (KHTML, like Gecko) Chrome/107.0.0.0 Safari/537.36","WebKit","Chrome","107.0.0.0","Windows","10.0","[0]","","9","3",""
"25510","You see how an astronaut is putting on a space suit <br> T&uacute ves como un astronauta se est&aacute poniendo su traje espacial","{""Q0"":1}","trial","71926","survey-likert","73","833730","0.0-5.0-0.58","13","1","2022-11-29 21:24:43","2df368f4e41f066fd1c82c297b4a1108","189.174.56.31","Mozilla/5.0 (Windows NT 10.0; Win64; x64) AppleWebKit/537.36 (KHTML, like Gecko) Chrome/107.0.0.0 Safari/537.36","WebKit","Chrome","107.0.0.0","Windows","10.0","[0]","","33","1",""
"25828","You see how an astronaut is putting on a space suit <br> T&uacute ves como un astronauta se est&aacute poniendo su traje espacial","{""Q0"":""This means the space suit belongs to the astronaut and it's not just any space suit. ""}","low_rate","71926","survey-text","74","859565","0.0-5.0-1.58-0.58","13","1","2022-11-29 21:24:43","2df368f4e41f066fd1c82c297b4a1108","189.174.56.31","Mozilla/5.0 (Windows NT 10.0; Win64; x64) AppleWebKit/537.36 (KHTML, like Gecko) Chrome/107.0.0.0 Safari/537.36","WebKit","Chrome","107.0.0.0","Windows","10.0","","","33","",""
"34049","You see how a police officer is talking on the phone <br> T&uacute ves como un polic&iacutea est&aacute hablando por el tel&eacutefono","{""Q0"":4}","trial","71926","survey-likert","75","893616","0.0-5.0-0.59","13","1","2022-11-29 21:24:43","2df368f4e41f066fd1c82c297b4a1108","189.174.56.31","Mozilla/5.0 (Windows NT 10.0; Win64; x64) AppleWebKit/537.36 (KHTML, like Gecko) Chrome/107.0.0.0 Safari/537.36","WebKit","Chrome","107.0.0.0","Windows","10.0","[0]","","62","4",""
"1662","You drop a bowling ball on a piece of cake <br> T&uacute tiras una bola de boliche a un trozo de pastel","{""Q0"":3}","trial","71926","survey-likert","76","895284","0.0-5.0-0.60","13","1","2022-11-29 21:24:43","2df368f4e41f066fd1c82c297b4a1108","189.174.56.31","Mozilla/5.0 (Windows NT 10.0; Win64; x64) AppleWebKit/537.36 (KHTML, like Gecko) Chrome/107.0.0.0 Safari/537.36","WebKit","Chrome","107.0.0.0","Windows","10.0","[0]","","2","3",""
"1772","You drop a bowling ball on a tile <br> T&uacute tiras una bola de boliche a una baldosa","{""Q0"":3}","trial","71926","survey-likert","77","897062","0.0-5.0-0.61","13","1","2022-11-29 21:24:43","2df368f4e41f066fd1c82c297b4a1108","189.174.56.31","Mozilla/5.0 (Windows NT 10.0; Win64; x64) AppleWebKit/537.36 (KHTML, like Gecko) Chrome/107.0.0.0 Safari/537.36","WebKit","Chrome","107.0.0.0","Windows","10.0","[0]","","22","3",""
"2014","You drop a bowling ball on an egg <br> T&uacute tiras una bola de boliche a un huevo","{""Q0"":3}","trial","71926","survey-likert","78","899083","0.0-5.0-0.62","13","1","2022-11-29 21:24:43","2df368f4e41f066fd1c82c297b4a1108","189.174.56.31","Mozilla/5.0 (Windows NT 10.0; Win64; x64) AppleWebKit/537.36 (KHTML, like Gecko) Chrome/107.0.0.0 Safari/537.36","WebKit","Chrome","107.0.0.0","Windows","10.0","[0]","","6","3",""
"5016","You drop a bowling ball on a rice cake <br> T&uacute tiras una bola de boliche a una tortita de arroz","{""Q0"":3}","trial","71926","survey-likert","79","904104","0.0-5.0-0.63","13","1","2022-11-29 21:24:43","2df368f4e41f066fd1c82c297b4a1108","189.174.56.31","Mozilla/5.0 (Windows NT 10.0; Win64; x64) AppleWebKit/537.36 (KHTML, like Gecko) Chrome/107.0.0.0 Safari/537.36","WebKit","Chrome","107.0.0.0","Windows","10.0","[0]","","18","3",""
"19788","You drop a toothbrush on the sponge <br> T&uacute tiras un cepillo de dientes en la esponja","{""Q0"":4}","trial","71926","survey-likert","80","923898","0.0-5.0-0.64","13","1","2022-11-29 21:24:43","2df368f4e41f066fd1c82c297b4a1108","189.174.56.31","Mozilla/5.0 (Windows NT 10.0; Win64; x64) AppleWebKit/537.36 (KHTML, like Gecko) Chrome/107.0.0.0 Safari/537.36","WebKit","Chrome","107.0.0.0","Windows","10.0","[0]","","25","4",""
"7222","You see how a nurse is taking a syringe <br> T&uacute ves como una enfermera est&aacute agarrando una jeringuilla","{""Q0"":3}","trial","71926","survey-likert","81","931126","0.0-5.0-0.65","13","1","2022-11-29 21:24:43","2df368f4e41f066fd1c82c297b4a1108","189.174.56.31","Mozilla/5.0 (Windows NT 10.0; Win64; x64) AppleWebKit/537.36 (KHTML, like Gecko) Chrome/107.0.0.0 Safari/537.36","WebKit","Chrome","107.0.0.0","Windows","10.0","[0]","","48","3",""
"8966","You drop a towel on the TV <br> T&uacute tiras una toalla a la televisi&oacuten","{""Q0"":3}","trial","71926","survey-likert","82","940098","0.0-5.0-0.66","13","1","2022-11-29 21:24:43","2df368f4e41f066fd1c82c297b4a1108","189.174.56.31","Mozilla/5.0 (Windows NT 10.0; Win64; x64) AppleWebKit/537.36 (KHTML, like Gecko) Chrome/107.0.0.0 Safari/537.36","WebKit","Chrome","107.0.0.0","Windows","10.0","[0]","","53","3",""
"2771","You drop a pencil on the shoe <br> T&uacute tiras un l&aacutepiz al zapato","{""Q0"":3}","trial","71926","survey-likert","83","942875","0.0-5.0-0.67","13","1","2022-11-29 21:24:43","2df368f4e41f066fd1c82c297b4a1108","189.174.56.31","Mozilla/5.0 (Windows NT 10.0; Win64; x64) AppleWebKit/537.36 (KHTML, like Gecko) Chrome/107.0.0.0 Safari/537.36","WebKit","Chrome","107.0.0.0","Windows","10.0","[0]","","40","3",""
"5964","You see how a zebra is playing with a horse <br> T&uacute ves como una cebra est&aacute jugando con un caballo","{""Q0"":4}","trial","71926","survey-likert","84","948845","0.0-5.0-0.68","13","1","2022-11-29 21:24:43","2df368f4e41f066fd1c82c297b4a1108","189.174.56.31","Mozilla/5.0 (Windows NT 10.0; Win64; x64) AppleWebKit/537.36 (KHTML, like Gecko) Chrome/107.0.0.0 Safari/537.36","WebKit","Chrome","107.0.0.0","Windows","10.0","[0]","","66","4",""
"4840","You see how an owl is sitting on the branch <br> T&uacute ves como un b&uacuteho est&aacute reposando en una rama","{""Q0"":4}","trial","71926","survey-likert","85","953692","0.0-5.0-0.69","13","1","2022-11-29 21:24:43","2df368f4e41f066fd1c82c297b4a1108","189.174.56.31","Mozilla/5.0 (Windows NT 10.0; Win64; x64) AppleWebKit/537.36 (KHTML, like Gecko) Chrome/107.0.0.0 Safari/537.36","WebKit","Chrome","107.0.0.0","Windows","10.0","[0]","","69","4",""
"4632","You see how a woman is paying with a debit card <br> T&uacute ves como una mujer est&aacute pagando con una tarjeta de d&eacutebito","{""Q0"":4}","trial","71926","survey-likert","86","958330","0.0-5.0-0.70","13","1","2022-11-29 21:24:43","2df368f4e41f066fd1c82c297b4a1108","189.174.56.31","Mozilla/5.0 (Windows NT 10.0; Win64; x64) AppleWebKit/537.36 (KHTML, like Gecko) Chrome/107.0.0.0 Safari/537.36","WebKit","Chrome","107.0.0.0","Windows","10.0","[0]","","64","4",""
"3928","You drop a bowling ball on an iPhone <br> T&uacute tiras una bola de boliche a un iPhone","{""Q0"":3}","trial","71926","survey-likert","87","962265","0.0-5.0-0.71","13","1","2022-11-29 21:24:43","2df368f4e41f066fd1c82c297b4a1108","189.174.56.31","Mozilla/5.0 (Windows NT 10.0; Win64; x64) AppleWebKit/537.36 (KHTML, like Gecko) Chrome/107.0.0.0 Safari/537.36","WebKit","Chrome","107.0.0.0","Windows","10.0","[0]","","13","3",""
"3213","
    <p style=""font-size:20px;""> You have completed the experiment portion! </p>
    <p style=""font-size:20px;""> Before you are done, we would like you to answer some basic demographic questions. </p>
    <p style=""font-size:20px;""> Note that your answers to these questions will not affect your compensation/credit. </p>
    <p style=""font-size:20px;""> Click the button below to continue.</p>
    ","0","demo","71926","html-button-response","88","965484","0.0-6.0","13","1","2022-11-29 21:24:43","2df368f4e41f066fd1c82c297b4a1108","189.174.56.31","Mozilla/5.0 (Windows NT 10.0; Win64; x64) AppleWebKit/537.36 (KHTML, like Gecko) Chrome/107.0.0.0 Safari/537.36","WebKit","Chrome","107.0.0.0","Windows","10.0","","","","",""
"20397","","{""Age"":""25"",""Gender"":""female"",""Education"":""16""}","demo","71926","survey-text","89","985886","0.0-7.0-0.0","13","1","2022-11-29 21:24:43","2df368f4e41f066fd1c82c297b4a1108","189.174.56.31","Mozilla/5.0 (Windows NT 10.0; Win64; x64) AppleWebKit/537.36 (KHTML, like Gecko) Chrome/107.0.0.0 Safari/537.36","WebKit","Chrome","107.0.0.0","Windows","10.0","","","","",""
"11144","","{""Race"":[""Other""]}","demo","71926","survey-multi-select","90","997036","0.0-7.0-1.0","13","1","2022-11-29 21:24:43","2df368f4e41f066fd1c82c297b4a1108","189.174.56.31","Mozilla/5.0 (Windows NT 10.0; Win64; x64) AppleWebKit/537.36 (KHTML, like Gecko) Chrome/107.0.0.0 Safari/537.36","WebKit","Chrome","107.0.0.0","Windows","10.0","[0]","","","",""
"8607","","{""Latino"":""Yes"",""Alert"":""Afternoon""}","demo","71926","survey-multi-choice","91","1005649","0.0-7.0-2.0","13","1","2022-11-29 21:24:43","2df368f4e41f066fd1c82c297b4a1108","189.174.56.31","Mozilla/5.0 (Windows NT 10.0; Win64; x64) AppleWebKit/537.36 (KHTML, like Gecko) Chrome/107.0.0.0 Safari/537.36","WebKit","Chrome","107.0.0.0","Windows","10.0","[0,1]","","","",""
"51072","","{""Q0"":""I would have liked to have the sentence I said was wrong again in the part where I type why I think it was wrong. I have a terrible memory so I often forgot what the sentence was. ""}","demo","71926","survey-text","92","1056727","0.0-7.0-3.0","13","1","2022-11-29 21:24:43","2df368f4e41f066fd1c82c297b4a1108","189.174.56.31","Mozilla/5.0 (Windows NT 10.0; Win64; x64) AppleWebKit/537.36 (KHTML, like Gecko) Chrome/107.0.0.0 Safari/537.36","WebKit","Chrome","107.0.0.0","Windows","10.0","","","","",""
"43521","<p>Thank you for participating! </p><strong>Your completion code is: CXEJB7NH. Please copy-paste this code and submit it on Prolific.</strong><p>Click <a href=""https://drive.google.com/file/d/1c70cdHFlc0AaR6RujLWLJwWkv1RbHQJY/view?usp=sharing"" target=""_blank"" rel=""noopener noreferrer"">here</a> to access the debriefing form and know more about our research. <p> Please click the button below to finish the experiment and save your data.</p> <p> IMPORTANT: Please <strong>do not leave this page </strong> without clicking the button below.</p> <p> You may close the tab/window after you click the button below.","0","","","html-button-response","93","1100253","0.0-8.0","13","1","2022-11-29 21:24:43","2df368f4e41f066fd1c82c297b4a1108","189.174.56.31","Mozilla/5.0 (Windows NT 10.0; Win64; x64) AppleWebKit/537.36 (KHTML, like Gecko) Chrome/107.0.0.0 Safari/537.36","WebKit","Chrome","107.0.0.0","Windows","10.0","","","","",""
