"rt","stimulus","response","typeoftrial","subject","trial_type","trial_index","time_elapsed","internal_node_id","run_id","condition","recorded_at","source_code_version","ip","user_agent","device","browser","browser_version","platform","platform_version","question_order","practice_rating","sentence_num","rating","Experiment"
"42245","
        <p style=""font-size:20px;""> Welcome! Thank you for your interest in our study. </p>
        <p style=""font-size:20px;""> This study is being conducted by researchers at Bowdoin College.</p>
        <p style=""font-size:20px;""> In this experiment, you will be asked to rate the accuracy of English and Spanish translations.</p>
        <p style=""font-size:20px;""> The entire experiment should not last more than 20 minutes. You will be paid $3 USD for your participation. </p>
        <p style=""font-size:20px;""> Please click <a href = ""https://drive.google.com/file/d/1L92a02eEKCpaAEipmqDcBCDR7rsarqFE/view?usp=sharing"" target = ""_blank"">here</a> to read the full consent form. </p>
        <p style=""font-size:20px;""> If you agree to participate, please click the button below to continue to experiment instructions.</p>
        ","0","consent","97261","html-button-response","0","42247","0.0-0.0","27","1","2022-11-29 21:24:53","2df368f4e41f066fd1c82c297b4a1108","186.79.181.25","Mozilla/5.0 (Windows NT 10.0; Win64; x64) AppleWebKit/537.36 (KHTML, like Gecko) Chrome/107.0.0.0 Safari/537.36","WebKit","Chrome","107.0.0.0","Windows","10.0","","","","",""
"6070","","{""ID"":""606794c6a32ed1d647fce232""}","ID","97261","survey-text","1","48322","0.0-1.0","27","1","2022-11-29 21:24:53","2df368f4e41f066fd1c82c297b4a1108","186.79.181.25","Mozilla/5.0 (Windows NT 10.0; Win64; x64) AppleWebKit/537.36 (KHTML, like Gecko) Chrome/107.0.0.0 Safari/537.36","WebKit","Chrome","107.0.0.0","Windows","10.0","","","","",""
"18489","
        <p style=""font-size:20px;""> You are about to begin the practice test. </p>
        <p style=""font-size:20px;""> On each trial, you will see a sentence in English and its corresponding Spanish translation. </p>
        <p style=""font-size:20px;""> You will rate the accuracy of the translation on a scale from ""Not at all accurate"" to ""Very accurate."" </p>
        <p style=""font-size:20px;""> If you rate the translation as ""Somewhat innaccurate"" or ""Not at all accurate,"" you will be asked to provide your own translation or a reason why the translation is inaccurate. </p>
        <p style=""font-size:20px;""> Click the button below to continue to the practice session.</p>","0","instructions","97261","html-button-response","2","66812","0.0-2.0","27","1","2022-11-29 21:24:53","2df368f4e41f066fd1c82c297b4a1108","186.79.181.25","Mozilla/5.0 (Windows NT 10.0; Win64; x64) AppleWebKit/537.36 (KHTML, like Gecko) Chrome/107.0.0.0 Safari/537.36","WebKit","Chrome","107.0.0.0","Windows","10.0","","","","",""
"57435","You see how a teacher is drawing a picture <br> T&uacute ves como un maestro pinta una foto","{""Q0"":1}","practice","97261","survey-likert","3","124248","0.0-3.0-0.0","27","1","2022-11-29 21:24:53","2df368f4e41f066fd1c82c297b4a1108","186.79.181.25","Mozilla/5.0 (Windows NT 10.0; Win64; x64) AppleWebKit/537.36 (KHTML, like Gecko) Chrome/107.0.0.0 Safari/537.36","WebKit","Chrome","107.0.0.0","Windows","10.0","[0]","1","","",""
"43828","You see how a teacher is drawing a picture <br> T&uacute ves como un maestro pinta una foto","{""Q0"":""Tú ves cómo un profesor está dibujando una imagen""}","practice_low_rate","97261","survey-text","4","168082","0.0-3.0-1.0-0.0","27","1","2022-11-29 21:24:53","2df368f4e41f066fd1c82c297b4a1108","186.79.181.25","Mozilla/5.0 (Windows NT 10.0; Win64; x64) AppleWebKit/537.36 (KHTML, like Gecko) Chrome/107.0.0.0 Safari/537.36","WebKit","Chrome","107.0.0.0","Windows","10.0","","","4","",""
"26027","You see how a duck is playing with a pumpkin <br> T&uacute ves como un pato est&aacute jugando con una calabaza","{""Q0"":4}","practice","97261","survey-likert","5","194110","0.0-3.0-0.1","27","1","2022-11-29 21:24:53","2df368f4e41f066fd1c82c297b4a1108","186.79.181.25","Mozilla/5.0 (Windows NT 10.0; Win64; x64) AppleWebKit/537.36 (KHTML, like Gecko) Chrome/107.0.0.0 Safari/537.36","WebKit","Chrome","107.0.0.0","Windows","10.0","[0]","4","","",""
"11485","You see how an artist is running <br> T&uacute ves como un artista est&aacute corriendo","{""Q0"":4}","practice","97261","survey-likert","6","205598","0.0-3.0-0.2","27","1","2022-11-29 21:24:53","2df368f4e41f066fd1c82c297b4a1108","186.79.181.25","Mozilla/5.0 (Windows NT 10.0; Win64; x64) AppleWebKit/537.36 (KHTML, like Gecko) Chrome/107.0.0.0 Safari/537.36","WebKit","Chrome","107.0.0.0","Windows","10.0","[0]","4","","",""
"51980","You drop a rock on a phone <br> T&uacute tiras una piedra a un tel&eacutefono","{""Q0"":1}","practice","97261","survey-likert","7","257581","0.0-3.0-0.3","27","1","2022-11-29 21:24:53","2df368f4e41f066fd1c82c297b4a1108","186.79.181.25","Mozilla/5.0 (Windows NT 10.0; Win64; x64) AppleWebKit/537.36 (KHTML, like Gecko) Chrome/107.0.0.0 Safari/537.36","WebKit","Chrome","107.0.0.0","Windows","10.0","[0]","1","","",""
"67832","You drop a rock on a phone <br> T&uacute tiras una piedra a un tel&eacutefono","{""Q0"":""Tú sueltas una piedra sobre un teléfono; drop is closer to the word \""soltar\""""}","practice_low_rate","97261","survey-text","8","325416","0.0-3.0-1.3-0.3","27","1","2022-11-29 21:24:53","2df368f4e41f066fd1c82c297b4a1108","186.79.181.25","Mozilla/5.0 (Windows NT 10.0; Win64; x64) AppleWebKit/537.36 (KHTML, like Gecko) Chrome/107.0.0.0 Safari/537.36","WebKit","Chrome","107.0.0.0","Windows","10.0","","","1","",""
"43375","You drop a bowling ball on a mircrowave <br> T&uacute tiras una bola de boliche a un horno","{""Q0"":2}","practice","97261","survey-likert","9","368793","0.0-3.0-0.4","27","1","2022-11-29 21:24:53","2df368f4e41f066fd1c82c297b4a1108","186.79.181.25","Mozilla/5.0 (Windows NT 10.0; Win64; x64) AppleWebKit/537.36 (KHTML, like Gecko) Chrome/107.0.0.0 Safari/537.36","WebKit","Chrome","107.0.0.0","Windows","10.0","[0]","2","","",""
"19094","You see how a tiger is playing with a goose <br> T&uacute ves como un le&oacuten come una pizza","{""Q0"":0}","practice","97261","survey-likert","10","387890","0.0-3.0-0.5","27","1","2022-11-29 21:24:53","2df368f4e41f066fd1c82c297b4a1108","186.79.181.25","Mozilla/5.0 (Windows NT 10.0; Win64; x64) AppleWebKit/537.36 (KHTML, like Gecko) Chrome/107.0.0.0 Safari/537.36","WebKit","Chrome","107.0.0.0","Windows","10.0","[0]","0","","",""
"25319","You see how a tiger is playing with a goose <br> T&uacute ves como un le&oacuten come una pizza","{""Q0"":""Tú ves cómo un tigre está jugando con un ganso""}","practice_low_rate","97261","survey-text","11","413212","0.0-3.0-1.5-0.5","27","1","2022-11-29 21:24:53","2df368f4e41f066fd1c82c297b4a1108","186.79.181.25","Mozilla/5.0 (Windows NT 10.0; Win64; x64) AppleWebKit/537.36 (KHTML, like Gecko) Chrome/107.0.0.0 Safari/537.36","WebKit","Chrome","107.0.0.0","Windows","10.0","","","5","",""
"3292","<p style=""font-size:20px;"">You have now completed the practice session! </p>
        <p style=""font-size:20px;"">You will now move on to the main experiment. </p>
        <p style=""font-size:20px;"">Please click the button below to continue. </p>","0","movetoexp","97261","html-button-response","12","416505","0.0-4.0","27","1","2022-11-29 21:24:53","2df368f4e41f066fd1c82c297b4a1108","186.79.181.25","Mozilla/5.0 (Windows NT 10.0; Win64; x64) AppleWebKit/537.36 (KHTML, like Gecko) Chrome/107.0.0.0 Safari/537.36","WebKit","Chrome","107.0.0.0","Windows","10.0","","","","",""
"51598","You drop a bowling ball on a chocolate muffin <br> T&uacute tiras una bola de boliche a una magdalena de chocolate","{""Q0"":3}","trial","97261","survey-likert","13","468104","0.0-5.0-0.0","27","1","2022-11-29 21:24:53","2df368f4e41f066fd1c82c297b4a1108","186.79.181.25","Mozilla/5.0 (Windows NT 10.0; Win64; x64) AppleWebKit/537.36 (KHTML, like Gecko) Chrome/107.0.0.0 Safari/537.36","WebKit","Chrome","107.0.0.0","Windows","10.0","[0]","","16","3",""
"14445","You see how a man is playing with a cat <br> T&uacute ves como un hombre est&aacute jugando con un gato","{""Q0"":4}","trial","97261","survey-likert","14","482552","0.0-5.0-0.1","27","1","2022-11-29 21:24:53","2df368f4e41f066fd1c82c297b4a1108","186.79.181.25","Mozilla/5.0 (Windows NT 10.0; Win64; x64) AppleWebKit/537.36 (KHTML, like Gecko) Chrome/107.0.0.0 Safari/537.36","WebKit","Chrome","107.0.0.0","Windows","10.0","[0]","","67","4",""
"16083","You see how a man is shaving his beard <br> T&uacute ves como un hombre se est&aacute afeitando la barba","{""Q0"":4}","trial","97261","survey-likert","15","498638","0.0-5.0-0.2","27","1","2022-11-29 21:24:53","2df368f4e41f066fd1c82c297b4a1108","186.79.181.25","Mozilla/5.0 (Windows NT 10.0; Win64; x64) AppleWebKit/537.36 (KHTML, like Gecko) Chrome/107.0.0.0 Safari/537.36","WebKit","Chrome","107.0.0.0","Windows","10.0","[0]","","43","4",""
"20539","You drop a bowling ball on a wine glass <br> T&uacute tiras una bola de boliche a una copa de vino","{""Q0"":3}","trial","97261","survey-likert","16","519180","0.0-5.0-0.3","27","1","2022-11-29 21:24:53","2df368f4e41f066fd1c82c297b4a1108","186.79.181.25","Mozilla/5.0 (Windows NT 10.0; Win64; x64) AppleWebKit/537.36 (KHTML, like Gecko) Chrome/107.0.0.0 Safari/537.36","WebKit","Chrome","107.0.0.0","Windows","10.0","[0]","","5","3",""
"15171","You see how a postman is driving a car <br> T&uacute ves como un cartero est&aacute conduciendo un coche","{""Q0"":4}","trial","97261","survey-likert","17","534353","0.0-5.0-0.4","27","1","2022-11-29 21:24:53","2df368f4e41f066fd1c82c297b4a1108","186.79.181.25","Mozilla/5.0 (Windows NT 10.0; Win64; x64) AppleWebKit/537.36 (KHTML, like Gecko) Chrome/107.0.0.0 Safari/537.36","WebKit","Chrome","107.0.0.0","Windows","10.0","[0]","","32","4",""
"16576","You see how a cook is taking a knife <br> T&uacute ves como un cocinero est&aacute agarrando un cuchillo","{""Q0"":4}","trial","97261","survey-likert","18","550932","0.0-5.0-0.5","27","1","2022-11-29 21:24:53","2df368f4e41f066fd1c82c297b4a1108","186.79.181.25","Mozilla/5.0 (Windows NT 10.0; Win64; x64) AppleWebKit/537.36 (KHTML, like Gecko) Chrome/107.0.0.0 Safari/537.36","WebKit","Chrome","107.0.0.0","Windows","10.0","[0]","","71","4",""
"19768","You drop a bowling ball on a tile <br> T&uacute tiras una bola de boliche a una baldosa","{""Q0"":3}","trial","97261","survey-likert","19","570702","0.0-5.0-0.6","27","1","2022-11-29 21:24:53","2df368f4e41f066fd1c82c297b4a1108","186.79.181.25","Mozilla/5.0 (Windows NT 10.0; Win64; x64) AppleWebKit/537.36 (KHTML, like Gecko) Chrome/107.0.0.0 Safari/537.36","WebKit","Chrome","107.0.0.0","Windows","10.0","[0]","","22","3",""
"25258","You see how a nurse is taking a syringe <br> T&uacute ves como una enfermera est&aacute agarrando una jeringuilla","{""Q0"":4}","trial","97261","survey-likert","20","595963","0.0-5.0-0.7","27","1","2022-11-29 21:24:53","2df368f4e41f066fd1c82c297b4a1108","186.79.181.25","Mozilla/5.0 (Windows NT 10.0; Win64; x64) AppleWebKit/537.36 (KHTML, like Gecko) Chrome/107.0.0.0 Safari/537.36","WebKit","Chrome","107.0.0.0","Windows","10.0","[0]","","48","4",""
"30511","You see how a mouse is eating cheese <br> T&uacute ves como el rat&oacuten est&aacute comiendo queso","{""Q0"":1}","trial","97261","survey-likert","21","626476","0.0-5.0-0.8","27","1","2022-11-29 21:24:53","2df368f4e41f066fd1c82c297b4a1108","186.79.181.25","Mozilla/5.0 (Windows NT 10.0; Win64; x64) AppleWebKit/537.36 (KHTML, like Gecko) Chrome/107.0.0.0 Safari/537.36","WebKit","Chrome","107.0.0.0","Windows","10.0","[0]","","56","1",""
"52364","You see how a mouse is eating cheese <br> T&uacute ves como el rat&oacuten est&aacute comiendo queso","{""Q0"":""Tú ves como un ratón está comiendo queso; a mouse is translated to \""un ratón\""""}","low_rate","97261","survey-text","22","678843","0.0-5.0-1.8-0.8","27","1","2022-11-29 21:24:53","2df368f4e41f066fd1c82c297b4a1108","186.79.181.25","Mozilla/5.0 (Windows NT 10.0; Win64; x64) AppleWebKit/537.36 (KHTML, like Gecko) Chrome/107.0.0.0 Safari/537.36","WebKit","Chrome","107.0.0.0","Windows","10.0","","","56","",""
"13741","You see how an old man is hammering a nail <br> T&uacute ves como un hombre anciano est&aacute martillando un clavo","{""Q0"":4}","trial","97261","survey-likert","23","692586","0.0-5.0-0.9","27","1","2022-11-29 21:24:53","2df368f4e41f066fd1c82c297b4a1108","186.79.181.25","Mozilla/5.0 (Windows NT 10.0; Win64; x64) AppleWebKit/537.36 (KHTML, like Gecko) Chrome/107.0.0.0 Safari/537.36","WebKit","Chrome","107.0.0.0","Windows","10.0","[0]","","29","4",""
"7666","You drop a bowling ball on a mirror <br> T&uacute tiras una bola de boliche a un espejo","{""Q0"":4}","trial","97261","survey-likert","24","700254","0.0-5.0-0.10","27","1","2022-11-29 21:24:53","2df368f4e41f066fd1c82c297b4a1108","186.79.181.25","Mozilla/5.0 (Windows NT 10.0; Win64; x64) AppleWebKit/537.36 (KHTML, like Gecko) Chrome/107.0.0.0 Safari/537.36","WebKit","Chrome","107.0.0.0","Windows","10.0","[0]","","15","4",""
"17890","You drop a cushion on the magazine <br> T&uacute tiras un coj&iacuten a la revista","{""Q0"":2}","trial","97261","survey-likert","25","718147","0.0-5.0-0.11","27","1","2022-11-29 21:24:53","2df368f4e41f066fd1c82c297b4a1108","186.79.181.25","Mozilla/5.0 (Windows NT 10.0; Win64; x64) AppleWebKit/537.36 (KHTML, like Gecko) Chrome/107.0.0.0 Safari/537.36","WebKit","Chrome","107.0.0.0","Windows","10.0","[0]","","38","2",""
"16248","You drop a bowling ball on a hat <br> T&uacute tiras una bola de boliche a una gorra","{""Q0"":2}","trial","97261","survey-likert","26","734397","0.0-5.0-0.12","27","1","2022-11-29 21:24:53","2df368f4e41f066fd1c82c297b4a1108","186.79.181.25","Mozilla/5.0 (Windows NT 10.0; Win64; x64) AppleWebKit/537.36 (KHTML, like Gecko) Chrome/107.0.0.0 Safari/537.36","WebKit","Chrome","107.0.0.0","Windows","10.0","[0]","","10","2",""
"11511","You drop a bowling ball on a paper cup <br> T&uacute tiras una bola de boliche a un vaso de papel","{""Q0"":3}","trial","97261","survey-likert","27","745911","0.0-5.0-0.13","27","1","2022-11-29 21:24:53","2df368f4e41f066fd1c82c297b4a1108","186.79.181.25","Mozilla/5.0 (Windows NT 10.0; Win64; x64) AppleWebKit/537.36 (KHTML, like Gecko) Chrome/107.0.0.0 Safari/537.36","WebKit","Chrome","107.0.0.0","Windows","10.0","[0]","","24","3",""
"12335","You see how a butterfly is sitting on a flower <br> T&uacute ves como una mariposa est&aacute reposando en una flor","{""Q0"":4}","trial","97261","survey-likert","28","758249","0.0-5.0-0.14","27","1","2022-11-29 21:24:53","2df368f4e41f066fd1c82c297b4a1108","186.79.181.25","Mozilla/5.0 (Windows NT 10.0; Win64; x64) AppleWebKit/537.36 (KHTML, like Gecko) Chrome/107.0.0.0 Safari/537.36","WebKit","Chrome","107.0.0.0","Windows","10.0","[0]","","59","4",""
"6525","You drop a bowling ball on a donut <br> T&uacute tiras una bola de boliche a una rosquilla","{""Q0"":3}","trial","97261","survey-likert","29","764777","0.0-5.0-0.15","27","1","2022-11-29 21:24:53","2df368f4e41f066fd1c82c297b4a1108","186.79.181.25","Mozilla/5.0 (Windows NT 10.0; Win64; x64) AppleWebKit/537.36 (KHTML, like Gecko) Chrome/107.0.0.0 Safari/537.36","WebKit","Chrome","107.0.0.0","Windows","10.0","[0]","","17","3",""
"12087","You drop a bowling ball on glasses <br> T&uacute tiras una bola de boliche a unas gafas","{""Q0"":3}","trial","97261","survey-likert","30","776867","0.0-5.0-0.16","27","1","2022-11-29 21:24:53","2df368f4e41f066fd1c82c297b4a1108","186.79.181.25","Mozilla/5.0 (Windows NT 10.0; Win64; x64) AppleWebKit/537.36 (KHTML, like Gecko) Chrome/107.0.0.0 Safari/537.36","WebKit","Chrome","107.0.0.0","Windows","10.0","[0]","","9","3",""
"20858","You drop a toothbrush on the sponge <br> T&uacute tiras un cepillo de dientes en la esponja","{""Q0"":3}","trial","97261","survey-likert","31","797727","0.0-5.0-0.17","27","1","2022-11-29 21:24:53","2df368f4e41f066fd1c82c297b4a1108","186.79.181.25","Mozilla/5.0 (Windows NT 10.0; Win64; x64) AppleWebKit/537.36 (KHTML, like Gecko) Chrome/107.0.0.0 Safari/537.36","WebKit","Chrome","107.0.0.0","Windows","10.0","[0]","","25","3",""
"11429","You see how a pilot is reading a book <br> T&uacute ves como un piloto est&aacute leyendo un libro","{""Q0"":4}","trial","97261","survey-likert","32","809158","0.0-5.0-0.18","27","1","2022-11-29 21:24:53","2df368f4e41f066fd1c82c297b4a1108","186.79.181.25","Mozilla/5.0 (Windows NT 10.0; Win64; x64) AppleWebKit/537.36 (KHTML, like Gecko) Chrome/107.0.0.0 Safari/537.36","WebKit","Chrome","107.0.0.0","Windows","10.0","[0]","","61","4",""
"18806","You see how a teenage girl is playing the piano <br> T&uacute ves como una ni&ntildea adolescente est&aacute tocando el piano","{""Q0"":3}","trial","97261","survey-likert","33","827967","0.0-5.0-0.19","27","1","2022-11-29 21:24:53","2df368f4e41f066fd1c82c297b4a1108","186.79.181.25","Mozilla/5.0 (Windows NT 10.0; Win64; x64) AppleWebKit/537.36 (KHTML, like Gecko) Chrome/107.0.0.0 Safari/537.36","WebKit","Chrome","107.0.0.0","Windows","10.0","[0]","","54","3",""
"24265","You see how a woman is taking money out of a wallet <br> T&uacute ves como una mujer est&aacute sacando dinero de su billetera","{""Q0"":4}","trial","97261","survey-likert","34","852235","0.0-5.0-0.20","27","1","2022-11-29 21:24:53","2df368f4e41f066fd1c82c297b4a1108","186.79.181.25","Mozilla/5.0 (Windows NT 10.0; Win64; x64) AppleWebKit/537.36 (KHTML, like Gecko) Chrome/107.0.0.0 Safari/537.36","WebKit","Chrome","107.0.0.0","Windows","10.0","[0]","","44","4",""
"10194","You drop a bowling ball on a blackberry <br> T&uacute tiras una bola de boliche a una mora","{""Q0"":3}","trial","97261","survey-likert","35","862432","0.0-5.0-0.21","27","1","2022-11-29 21:24:53","2df368f4e41f066fd1c82c297b4a1108","186.79.181.25","Mozilla/5.0 (Windows NT 10.0; Win64; x64) AppleWebKit/537.36 (KHTML, like Gecko) Chrome/107.0.0.0 Safari/537.36","WebKit","Chrome","107.0.0.0","Windows","10.0","[0]","","8","3",""
"6587","You drop a bowling ball on an egg <br> T&uacute tiras una bola de boliche a un huevo","{""Q0"":3}","trial","97261","survey-likert","36","869021","0.0-5.0-0.22","27","1","2022-11-29 21:24:53","2df368f4e41f066fd1c82c297b4a1108","186.79.181.25","Mozilla/5.0 (Windows NT 10.0; Win64; x64) AppleWebKit/537.36 (KHTML, like Gecko) Chrome/107.0.0.0 Safari/537.36","WebKit","Chrome","107.0.0.0","Windows","10.0","[0]","","6","3",""
"11656","You see how a giraffe is playing with a zebra <br> T&uacute ves como una jirafa est&aacute jugando con una cebra","{""Q0"":4}","trial","97261","survey-likert","37","880680","0.0-5.0-0.23","27","1","2022-11-29 21:24:53","2df368f4e41f066fd1c82c297b4a1108","186.79.181.25","Mozilla/5.0 (Windows NT 10.0; Win64; x64) AppleWebKit/537.36 (KHTML, like Gecko) Chrome/107.0.0.0 Safari/537.36","WebKit","Chrome","107.0.0.0","Windows","10.0","[0]","","65","4",""
"13779","You drop a bowling ball on a porcelain figure <br> T&uacute tiras una bola de boliche a una figura de porcelana","{""Q0"":3}","trial","97261","survey-likert","38","894462","0.0-5.0-0.24","27","1","2022-11-29 21:24:53","2df368f4e41f066fd1c82c297b4a1108","186.79.181.25","Mozilla/5.0 (Windows NT 10.0; Win64; x64) AppleWebKit/537.36 (KHTML, like Gecko) Chrome/107.0.0.0 Safari/537.36","WebKit","Chrome","107.0.0.0","Windows","10.0","[0]","","1","3",""
"19905","You see how a hairdresser is taking scissors <br> T&uacute ves como una peluquera est&aacute agarrando las tijeras","{""Q0"":3}","trial","97261","survey-likert","39","914369","0.0-5.0-0.25","27","1","2022-11-29 21:24:53","2df368f4e41f066fd1c82c297b4a1108","186.79.181.25","Mozilla/5.0 (Windows NT 10.0; Win64; x64) AppleWebKit/537.36 (KHTML, like Gecko) Chrome/107.0.0.0 Safari/537.36","WebKit","Chrome","107.0.0.0","Windows","10.0","[0]","","60","3",""
"10417","You drop a ring on the newspaper <br> T&uacute tiras un anillo al peri&oacutedico","{""Q0"":3}","trial","97261","survey-likert","40","924789","0.0-5.0-0.26","27","1","2022-11-29 21:24:53","2df368f4e41f066fd1c82c297b4a1108","186.79.181.25","Mozilla/5.0 (Windows NT 10.0; Win64; x64) AppleWebKit/537.36 (KHTML, like Gecko) Chrome/107.0.0.0 Safari/537.36","WebKit","Chrome","107.0.0.0","Windows","10.0","[0]","","41","3",""
"23575","You see how an actress is taking a microphone <br> T&uacute ves como una actriz est&aacute agarrando el micr&oacutefono","{""Q0"":1}","trial","97261","survey-likert","41","948367","0.0-5.0-0.27","27","1","2022-11-29 21:24:53","2df368f4e41f066fd1c82c297b4a1108","186.79.181.25","Mozilla/5.0 (Windows NT 10.0; Win64; x64) AppleWebKit/537.36 (KHTML, like Gecko) Chrome/107.0.0.0 Safari/537.36","WebKit","Chrome","107.0.0.0","Windows","10.0","[0]","","51","1",""
"85067","You see how an actress is taking a microphone <br> T&uacute ves como una actriz est&aacute agarrando el micr&oacutefono","{""Q0"":""Tú ves como una actriz está agarrando un micrófono; a small difference between the pronouns \""el\"" (the) and \""un\"" (a)""}","low_rate","97261","survey-text","42","1033437","0.0-5.0-1.27-0.27","27","1","2022-11-29 21:24:53","2df368f4e41f066fd1c82c297b4a1108","186.79.181.25","Mozilla/5.0 (Windows NT 10.0; Win64; x64) AppleWebKit/537.36 (KHTML, like Gecko) Chrome/107.0.0.0 Safari/537.36","WebKit","Chrome","107.0.0.0","Windows","10.0","","","51","",""
"14400","You see how a president is writing in the notebook <br> T&uacute ves como un presidente est&aacute escribiendo en la libreta","{""Q0"":4}","trial","97261","survey-likert","43","1047838","0.0-5.0-0.28","27","1","2022-11-29 21:24:53","2df368f4e41f066fd1c82c297b4a1108","186.79.181.25","Mozilla/5.0 (Windows NT 10.0; Win64; x64) AppleWebKit/537.36 (KHTML, like Gecko) Chrome/107.0.0.0 Safari/537.36","WebKit","Chrome","107.0.0.0","Windows","10.0","[0]","","63","4",""
"17325","You see how a student is writing on a board <br> T&uacute ves como un estudiante est&aacute escribiendo en la pizarra","{""Q0"":2}","trial","97261","survey-likert","44","1065166","0.0-5.0-0.29","27","1","2022-11-29 21:24:53","2df368f4e41f066fd1c82c297b4a1108","186.79.181.25","Mozilla/5.0 (Windows NT 10.0; Win64; x64) AppleWebKit/537.36 (KHTML, like Gecko) Chrome/107.0.0.0 Safari/537.36","WebKit","Chrome","107.0.0.0","Windows","10.0","[0]","","50","2",""
"14024","You see how a police officer is talking on the phone <br> T&uacute ves como un polic&iacutea est&aacute hablando por el tel&eacutefono","{""Q0"":4}","trial","97261","survey-likert","45","1079193","0.0-5.0-0.30","27","1","2022-11-29 21:24:53","2df368f4e41f066fd1c82c297b4a1108","186.79.181.25","Mozilla/5.0 (Windows NT 10.0; Win64; x64) AppleWebKit/537.36 (KHTML, like Gecko) Chrome/107.0.0.0 Safari/537.36","WebKit","Chrome","107.0.0.0","Windows","10.0","[0]","","62","4",""
"9197","You see how a parrot is eating an apple <br> T&uacute ves como un loro est&aacute comiendo una manzana","{""Q0"":4}","trial","97261","survey-likert","46","1088393","0.0-5.0-0.31","27","1","2022-11-29 21:24:53","2df368f4e41f066fd1c82c297b4a1108","186.79.181.25","Mozilla/5.0 (Windows NT 10.0; Win64; x64) AppleWebKit/537.36 (KHTML, like Gecko) Chrome/107.0.0.0 Safari/537.36","WebKit","Chrome","107.0.0.0","Windows","10.0","[0]","","58","4",""
"14342","You drop a bowling ball on a light bulb <br> T&uacute tiras una bola de boliche a una bombilla","{""Q0"":3}","trial","97261","survey-likert","47","1102739","0.0-5.0-0.32","27","1","2022-11-29 21:24:53","2df368f4e41f066fd1c82c297b4a1108","186.79.181.25","Mozilla/5.0 (Windows NT 10.0; Win64; x64) AppleWebKit/537.36 (KHTML, like Gecko) Chrome/107.0.0.0 Safari/537.36","WebKit","Chrome","107.0.0.0","Windows","10.0","[0]","","14","3",""
"22291","You see how a cat is drinking water from a bowl <br> T&uacute ves como un gato est&aacute bebiendo agua de un cuenco","{""Q0"":4}","trial","97261","survey-likert","48","1125033","0.0-5.0-0.33","27","1","2022-11-29 21:24:53","2df368f4e41f066fd1c82c297b4a1108","186.79.181.25","Mozilla/5.0 (Windows NT 10.0; Win64; x64) AppleWebKit/537.36 (KHTML, like Gecko) Chrome/107.0.0.0 Safari/537.36","WebKit","Chrome","107.0.0.0","Windows","10.0","[0]","","28","4",""
"8846","You see how a boy is peeling a banana <br> T&uacute ves como un ni&ntildeo est&aacute pelando una banana","{""Q0"":4}","trial","97261","survey-likert","49","1133881","0.0-5.0-0.34","27","1","2022-11-29 21:24:53","2df368f4e41f066fd1c82c297b4a1108","186.79.181.25","Mozilla/5.0 (Windows NT 10.0; Win64; x64) AppleWebKit/537.36 (KHTML, like Gecko) Chrome/107.0.0.0 Safari/537.36","WebKit","Chrome","107.0.0.0","Windows","10.0","[0]","","30","4",""
"13198","You drop a bowling ball on an iPAD <br> T&uacute tiras una bola de boliche a un iPad","{""Q0"":3}","trial","97261","survey-likert","50","1147083","0.0-5.0-0.35","27","1","2022-11-29 21:24:53","2df368f4e41f066fd1c82c297b4a1108","186.79.181.25","Mozilla/5.0 (Windows NT 10.0; Win64; x64) AppleWebKit/537.36 (KHTML, like Gecko) Chrome/107.0.0.0 Safari/537.36","WebKit","Chrome","107.0.0.0","Windows","10.0","[0]","","12","3",""
"14099","You see how an elephant is eating a watermelon <br> T&uacute ves como un elefante est&aacute comiendo una sand&iacutea","{""Q0"":4}","trial","97261","survey-likert","51","1161185","0.0-5.0-0.36","27","1","2022-11-29 21:24:53","2df368f4e41f066fd1c82c297b4a1108","186.79.181.25","Mozilla/5.0 (Windows NT 10.0; Win64; x64) AppleWebKit/537.36 (KHTML, like Gecko) Chrome/107.0.0.0 Safari/537.36","WebKit","Chrome","107.0.0.0","Windows","10.0","[0]","","31","4",""
"15719","You see how an astronaut is putting on a space suit <br> T&uacute ves como un astronauta se est&aacute poniendo su traje espacial","{""Q0"":4}","trial","97261","survey-likert","52","1176908","0.0-5.0-0.37","27","1","2022-11-29 21:24:53","2df368f4e41f066fd1c82c297b4a1108","186.79.181.25","Mozilla/5.0 (Windows NT 10.0; Win64; x64) AppleWebKit/537.36 (KHTML, like Gecko) Chrome/107.0.0.0 Safari/537.36","WebKit","Chrome","107.0.0.0","Windows","10.0","[0]","","33","4",""
"6584","You drop a bowling ball on a cracker <br> T&uacute tiras una bola de boliche a una galleta","{""Q0"":3}","trial","97261","survey-likert","53","1183496","0.0-5.0-0.38","27","1","2022-11-29 21:24:53","2df368f4e41f066fd1c82c297b4a1108","186.79.181.25","Mozilla/5.0 (Windows NT 10.0; Win64; x64) AppleWebKit/537.36 (KHTML, like Gecko) Chrome/107.0.0.0 Safari/537.36","WebKit","Chrome","107.0.0.0","Windows","10.0","[0]","","4","3",""
"12367","You drop a thermometer on the box <br> T&uacute tiras un term&oacutemetro a la caja","{""Q0"":3}","trial","97261","survey-likert","54","1195866","0.0-5.0-0.39","27","1","2022-11-29 21:24:53","2df368f4e41f066fd1c82c297b4a1108","186.79.181.25","Mozilla/5.0 (Windows NT 10.0; Win64; x64) AppleWebKit/537.36 (KHTML, like Gecko) Chrome/107.0.0.0 Safari/537.36","WebKit","Chrome","107.0.0.0","Windows","10.0","[0]","","70","3",""
"8629","You see how a doctor is taking a stethoscope <br> T&uacute ves como un doctor est&aacute agarrando un estetoscopio","{""Q0"":4}","trial","97261","survey-likert","55","1204497","0.0-5.0-0.40","27","1","2022-11-29 21:24:53","2df368f4e41f066fd1c82c297b4a1108","186.79.181.25","Mozilla/5.0 (Windows NT 10.0; Win64; x64) AppleWebKit/537.36 (KHTML, like Gecko) Chrome/107.0.0.0 Safari/537.36","WebKit","Chrome","107.0.0.0","Windows","10.0","[0]","","49","4",""
"10541","You see how a thief is stealing a wallet <br> T&uacute ves como un ladr&oacuten est&aacute robando una billetera","{""Q0"":4}","trial","97261","survey-likert","56","1215041","0.0-5.0-0.41","27","1","2022-11-29 21:24:53","2df368f4e41f066fd1c82c297b4a1108","186.79.181.25","Mozilla/5.0 (Windows NT 10.0; Win64; x64) AppleWebKit/537.36 (KHTML, like Gecko) Chrome/107.0.0.0 Safari/537.36","WebKit","Chrome","107.0.0.0","Windows","10.0","[0]","","68","4",""
"4906","You drop a bowling ball on an iPhone <br> T&uacute tiras una bola de boliche a un iPhone","{""Q0"":3}","trial","97261","survey-likert","57","1219950","0.0-5.0-0.42","27","1","2022-11-29 21:24:53","2df368f4e41f066fd1c82c297b4a1108","186.79.181.25","Mozilla/5.0 (Windows NT 10.0; Win64; x64) AppleWebKit/537.36 (KHTML, like Gecko) Chrome/107.0.0.0 Safari/537.36","WebKit","Chrome","107.0.0.0","Windows","10.0","[0]","","13","3",""
"16686","You see how a puppy is playing with a ball <br> T&uacute ves como un cachorro est&aacute jugando con una pelota","{""Q0"":4}","trial","97261","survey-likert","58","1236638","0.0-5.0-0.43","27","1","2022-11-29 21:24:53","2df368f4e41f066fd1c82c297b4a1108","186.79.181.25","Mozilla/5.0 (Windows NT 10.0; Win64; x64) AppleWebKit/537.36 (KHTML, like Gecko) Chrome/107.0.0.0 Safari/537.36","WebKit","Chrome","107.0.0.0","Windows","10.0","[0]","","34","4",""
"32171","You see how a dentist is drinking a can of cola <br> T&uacute ves como un dentista est&aacute bebiendo una lata de cola","{""Q0"":3}","trial","97261","survey-likert","59","1268813","0.0-5.0-0.44","27","1","2022-11-29 21:24:53","2df368f4e41f066fd1c82c297b4a1108","186.79.181.25","Mozilla/5.0 (Windows NT 10.0; Win64; x64) AppleWebKit/537.36 (KHTML, like Gecko) Chrome/107.0.0.0 Safari/537.36","WebKit","Chrome","107.0.0.0","Windows","10.0","[0]","","47","3",""
"28308","You drop a fork on the plate <br> T&uacute tiras un tenedor al plato","{""Q0"":1}","trial","97261","survey-likert","60","1297124","0.0-5.0-0.45","27","1","2022-11-29 21:24:53","2df368f4e41f066fd1c82c297b4a1108","186.79.181.25","Mozilla/5.0 (Windows NT 10.0; Win64; x64) AppleWebKit/537.36 (KHTML, like Gecko) Chrome/107.0.0.0 Safari/537.36","WebKit","Chrome","107.0.0.0","Windows","10.0","[0]","","26","1",""
"9583","You drop a fork on the plate <br> T&uacute tiras un tenedor al plato","{""Q0"":""Tú tiras un tenedor en el plato""}","low_rate","97261","survey-text","61","1306711","0.0-5.0-1.45-0.45","27","1","2022-11-29 21:24:53","2df368f4e41f066fd1c82c297b4a1108","186.79.181.25","Mozilla/5.0 (Windows NT 10.0; Win64; x64) AppleWebKit/537.36 (KHTML, like Gecko) Chrome/107.0.0.0 Safari/537.36","WebKit","Chrome","107.0.0.0","Windows","10.0","","","26","",""
"51735","You drop a bowling ball on an egg flan <br> T&uacute tiras una bola de boliche a un flan","{""Q0"":3}","trial","97261","survey-likert","62","1358448","0.0-5.0-0.46","27","1","2022-11-29 21:24:53","2df368f4e41f066fd1c82c297b4a1108","186.79.181.25","Mozilla/5.0 (Windows NT 10.0; Win64; x64) AppleWebKit/537.36 (KHTML, like Gecko) Chrome/107.0.0.0 Safari/537.36","WebKit","Chrome","107.0.0.0","Windows","10.0","[0]","","7","3",""
"9531","You see how a horse is chewing hay <br> T&uacute ves como un caballo est&aacute masticando el heno","{""Q0"":4}","trial","97261","survey-likert","63","1367982","0.0-5.0-0.47","27","1","2022-11-29 21:24:53","2df368f4e41f066fd1c82c297b4a1108","186.79.181.25","Mozilla/5.0 (Windows NT 10.0; Win64; x64) AppleWebKit/537.36 (KHTML, like Gecko) Chrome/107.0.0.0 Safari/537.36","WebKit","Chrome","107.0.0.0","Windows","10.0","[0]","","55","4",""
"11966","You see how a photographer is taking a photo of a lion <br> T&uacute ves como un fot&oacutegrafo est&aacute tomando una foto de un le&oacuten","{""Q0"":4}","trial","97261","survey-likert","64","1379951","0.0-5.0-0.48","27","1","2022-11-29 21:24:53","2df368f4e41f066fd1c82c297b4a1108","186.79.181.25","Mozilla/5.0 (Windows NT 10.0; Win64; x64) AppleWebKit/537.36 (KHTML, like Gecko) Chrome/107.0.0.0 Safari/537.36","WebKit","Chrome","107.0.0.0","Windows","10.0","[0]","","72","4",""
"11519","You drop a watch on the laptop <br> T&uacute tiras un reloj al port&aacutetil","{""Q0"":3}","trial","97261","survey-likert","65","1391473","0.0-5.0-0.49","27","1","2022-11-29 21:24:53","2df368f4e41f066fd1c82c297b4a1108","186.79.181.25","Mozilla/5.0 (Windows NT 10.0; Win64; x64) AppleWebKit/537.36 (KHTML, like Gecko) Chrome/107.0.0.0 Safari/537.36","WebKit","Chrome","107.0.0.0","Windows","10.0","[0]","","37","3",""
"11265","You drop a bowling ball on a ceramic plate <br> T&uacute tiras una bola de boliche a un plato de cer&aacutemica","{""Q0"":4}","trial","97261","survey-likert","66","1402741","0.0-5.0-0.50","27","1","2022-11-29 21:24:53","2df368f4e41f066fd1c82c297b4a1108","186.79.181.25","Mozilla/5.0 (Windows NT 10.0; Win64; x64) AppleWebKit/537.36 (KHTML, like Gecko) Chrome/107.0.0.0 Safari/537.36","WebKit","Chrome","107.0.0.0","Windows","10.0","[0]","","19","4",""
"43648","You see how a man is boiling potatoes <br> T&uacute ves a un hombre est&aacute hirviendo papas","{""Q0"":1}","trial","97261","survey-likert","67","1446391","0.0-5.0-0.51","27","1","2022-11-29 21:24:53","2df368f4e41f066fd1c82c297b4a1108","186.79.181.25","Mozilla/5.0 (Windows NT 10.0; Win64; x64) AppleWebKit/537.36 (KHTML, like Gecko) Chrome/107.0.0.0 Safari/537.36","WebKit","Chrome","107.0.0.0","Windows","10.0","[0]","","46","1",""
"1316","You see how a man is boiling potatoes <br> T&uacute ves a un hombre est&aacute hirviendo papas","{""Q0"":""Tú ves cómo un hombre está hirviendo papas""}","low_rate","97261","survey-text","68","1447711","0.0-5.0-1.51-0.51","27","1","2022-11-29 21:24:53","2df368f4e41f066fd1c82c297b4a1108","186.79.181.25","Mozilla/5.0 (Windows NT 10.0; Win64; x64) AppleWebKit/537.36 (KHTML, like Gecko) Chrome/107.0.0.0 Safari/537.36","WebKit","Chrome","107.0.0.0","Windows","10.0","","","46","",""
"21756","You drop a bowling ball on an empty can of beer <br> T&uacute tiras una bola de boliche a una lata de cerveza vac&iacutea","{""Q0"":4}","trial","97261","survey-likert","69","1469469","0.0-5.0-0.52","27","1","2022-11-29 21:24:53","2df368f4e41f066fd1c82c297b4a1108","186.79.181.25","Mozilla/5.0 (Windows NT 10.0; Win64; x64) AppleWebKit/537.36 (KHTML, like Gecko) Chrome/107.0.0.0 Safari/537.36","WebKit","Chrome","107.0.0.0","Windows","10.0","[0]","","3","4",""
"17034","You drop a pencil on the shoe <br> T&uacute tiras un l&aacutepiz al zapato","{""Q0"":3}","trial","97261","survey-likert","70","1486506","0.0-5.0-0.53","27","1","2022-11-29 21:24:53","2df368f4e41f066fd1c82c297b4a1108","186.79.181.25","Mozilla/5.0 (Windows NT 10.0; Win64; x64) AppleWebKit/537.36 (KHTML, like Gecko) Chrome/107.0.0.0 Safari/537.36","WebKit","Chrome","107.0.0.0","Windows","10.0","[0]","","40","3",""
"12637","You see how a musician is playing a guitar <br> T&uacute ves como un m&uacutesico est&aacute tocando la guitarra","{""Q0"":2}","trial","97261","survey-likert","71","1499146","0.0-5.0-0.54","27","1","2022-11-29 21:24:53","2df368f4e41f066fd1c82c297b4a1108","186.79.181.25","Mozilla/5.0 (Windows NT 10.0; Win64; x64) AppleWebKit/537.36 (KHTML, like Gecko) Chrome/107.0.0.0 Safari/537.36","WebKit","Chrome","107.0.0.0","Windows","10.0","[0]","","27","2",""
"9780","You see how a panda is resting on a tree <br> T&uacute ves como un panda est&aacute descansando en un &aacuterbol","{""Q0"":4}","trial","97261","survey-likert","72","1508930","0.0-5.0-0.55","27","1","2022-11-29 21:24:53","2df368f4e41f066fd1c82c297b4a1108","186.79.181.25","Mozilla/5.0 (Windows NT 10.0; Win64; x64) AppleWebKit/537.36 (KHTML, like Gecko) Chrome/107.0.0.0 Safari/537.36","WebKit","Chrome","107.0.0.0","Windows","10.0","[0]","","57","4",""
"7794","You drop a remote on the rug <br> T&uacute tiras un control remoto a la alfombra","{""Q0"":3}","trial","97261","survey-likert","73","1516727","0.0-5.0-0.56","27","1","2022-11-29 21:24:53","2df368f4e41f066fd1c82c297b4a1108","186.79.181.25","Mozilla/5.0 (Windows NT 10.0; Win64; x64) AppleWebKit/537.36 (KHTML, like Gecko) Chrome/107.0.0.0 Safari/537.36","WebKit","Chrome","107.0.0.0","Windows","10.0","[0]","","39","3",""
"15110","You see how a woman is paying with a debit card <br> T&uacute ves como una mujer est&aacute pagando con una tarjeta de d&eacutebito","{""Q0"":4}","trial","97261","survey-likert","74","1531840","0.0-5.0-0.57","27","1","2022-11-29 21:24:53","2df368f4e41f066fd1c82c297b4a1108","186.79.181.25","Mozilla/5.0 (Windows NT 10.0; Win64; x64) AppleWebKit/537.36 (KHTML, like Gecko) Chrome/107.0.0.0 Safari/537.36","WebKit","Chrome","107.0.0.0","Windows","10.0","[0]","","64","4",""
"15796","You drop a bowling ball on a rice cake <br> T&uacute tiras una bola de boliche a una tortita de arroz","{""Q0"":4}","trial","97261","survey-likert","75","1547639","0.0-5.0-0.58","27","1","2022-11-29 21:24:53","2df368f4e41f066fd1c82c297b4a1108","186.79.181.25","Mozilla/5.0 (Windows NT 10.0; Win64; x64) AppleWebKit/537.36 (KHTML, like Gecko) Chrome/107.0.0.0 Safari/537.36","WebKit","Chrome","107.0.0.0","Windows","10.0","[0]","","18","4",""
"11514","You see how a zebra is playing with a horse <br> T&uacute ves como una cebra est&aacute jugando con un caballo","{""Q0"":4}","trial","97261","survey-likert","76","1559155","0.0-5.0-0.59","27","1","2022-11-29 21:24:53","2df368f4e41f066fd1c82c297b4a1108","186.79.181.25","Mozilla/5.0 (Windows NT 10.0; Win64; x64) AppleWebKit/537.36 (KHTML, like Gecko) Chrome/107.0.0.0 Safari/537.36","WebKit","Chrome","107.0.0.0","Windows","10.0","[0]","","66","4",""
"11840","You drop a keyboard on the bed <br> T&uacute tiras un teclado a la cama","{""Q0"":3}","trial","97261","survey-likert","77","1570999","0.0-5.0-0.60","27","1","2022-11-29 21:24:53","2df368f4e41f066fd1c82c297b4a1108","186.79.181.25","Mozilla/5.0 (Windows NT 10.0; Win64; x64) AppleWebKit/537.36 (KHTML, like Gecko) Chrome/107.0.0.0 Safari/537.36","WebKit","Chrome","107.0.0.0","Windows","10.0","[0]","","36","3",""
"33435","You see how a donkey is drinking water <br> T&uacute ves como un burro est&aacute bebiendo agua","{""Q0"":4}","trial","97261","survey-likert","78","1604438","0.0-5.0-0.61","27","1","2022-11-29 21:24:53","2df368f4e41f066fd1c82c297b4a1108","186.79.181.25","Mozilla/5.0 (Windows NT 10.0; Win64; x64) AppleWebKit/537.36 (KHTML, like Gecko) Chrome/107.0.0.0 Safari/537.36","WebKit","Chrome","107.0.0.0","Windows","10.0","[0]","","45","4",""
"9434","You drop a bowling ball on a strawberry <br> T&uacute tiras una bola de boliche a una fresa","{""Q0"":3}","trial","97261","survey-likert","79","1613875","0.0-5.0-0.62","27","1","2022-11-29 21:24:53","2df368f4e41f066fd1c82c297b4a1108","186.79.181.25","Mozilla/5.0 (Windows NT 10.0; Win64; x64) AppleWebKit/537.36 (KHTML, like Gecko) Chrome/107.0.0.0 Safari/537.36","WebKit","Chrome","107.0.0.0","Windows","10.0","[0]","","20","3",""
"19699","You drop a needle on the mouse pad <br> T&uacute tiras una aguja a la alfombrilla para el rat&oacuten","{""Q0"":2}","trial","97261","survey-likert","80","1633577","0.0-5.0-0.63","27","1","2022-11-29 21:24:53","2df368f4e41f066fd1c82c297b4a1108","186.79.181.25","Mozilla/5.0 (Windows NT 10.0; Win64; x64) AppleWebKit/537.36 (KHTML, like Gecko) Chrome/107.0.0.0 Safari/537.36","WebKit","Chrome","107.0.0.0","Windows","10.0","[0]","","42","2",""
"17034","You drop a towel on the TV <br> T&uacute tiras una toalla a la televisi&oacuten","{""Q0"":3}","trial","97261","survey-likert","81","1650615","0.0-5.0-0.64","27","1","2022-11-29 21:24:53","2df368f4e41f066fd1c82c297b4a1108","186.79.181.25","Mozilla/5.0 (Windows NT 10.0; Win64; x64) AppleWebKit/537.36 (KHTML, like Gecko) Chrome/107.0.0.0 Safari/537.36","WebKit","Chrome","107.0.0.0","Windows","10.0","[0]","","53","3",""
"9494","You drop a bowling ball on a tomato <br> T&uacute tiras una bola de boliche a un tomate","{""Q0"":3}","trial","97261","survey-likert","82","1660111","0.0-5.0-0.65","27","1","2022-11-29 21:24:53","2df368f4e41f066fd1c82c297b4a1108","186.79.181.25","Mozilla/5.0 (Windows NT 10.0; Win64; x64) AppleWebKit/537.36 (KHTML, like Gecko) Chrome/107.0.0.0 Safari/537.36","WebKit","Chrome","107.0.0.0","Windows","10.0","[0]","","23","3",""
"8863","You drop a cabbage on the table <br> T&uacute tiras una col a la mesa","{""Q0"":3}","trial","97261","survey-likert","83","1668978","0.0-5.0-0.66","27","1","2022-11-29 21:24:53","2df368f4e41f066fd1c82c297b4a1108","186.79.181.25","Mozilla/5.0 (Windows NT 10.0; Win64; x64) AppleWebKit/537.36 (KHTML, like Gecko) Chrome/107.0.0.0 Safari/537.36","WebKit","Chrome","107.0.0.0","Windows","10.0","[0]","","35","3",""
"10095","You see how a kitten is playing in the sandbox <br> T&uacute ves como un gatito est&aacute jugando en la caja de arena","{""Q0"":4}","trial","97261","survey-likert","84","1679077","0.0-5.0-0.67","27","1","2022-11-29 21:24:53","2df368f4e41f066fd1c82c297b4a1108","186.79.181.25","Mozilla/5.0 (Windows NT 10.0; Win64; x64) AppleWebKit/537.36 (KHTML, like Gecko) Chrome/107.0.0.0 Safari/537.36","WebKit","Chrome","107.0.0.0","Windows","10.0","[0]","","52","4",""
"36372","You see how an owl is sitting on the branch <br> T&uacute ves como un b&uacuteho est&aacute reposando en una rama","{""Q0"":2}","trial","97261","survey-likert","85","1715453","0.0-5.0-0.68","27","1","2022-11-29 21:24:53","2df368f4e41f066fd1c82c297b4a1108","186.79.181.25","Mozilla/5.0 (Windows NT 10.0; Win64; x64) AppleWebKit/537.36 (KHTML, like Gecko) Chrome/107.0.0.0 Safari/537.36","WebKit","Chrome","107.0.0.0","Windows","10.0","[0]","","69","2",""
"14556","You drop a bowling ball on a piece of cake <br> T&uacute tiras una bola de boliche a un trozo de pastel","{""Q0"":3}","trial","97261","survey-likert","86","1730012","0.0-5.0-0.69","27","1","2022-11-29 21:24:53","2df368f4e41f066fd1c82c297b4a1108","186.79.181.25","Mozilla/5.0 (Windows NT 10.0; Win64; x64) AppleWebKit/537.36 (KHTML, like Gecko) Chrome/107.0.0.0 Safari/537.36","WebKit","Chrome","107.0.0.0","Windows","10.0","[0]","","2","3",""
"10796","You drop a bowling ball on a piece of sushi <br> T&uacute tiras una bola de boliche a un pedazo de sushi","{""Q0"":3}","trial","97261","survey-likert","87","1740812","0.0-5.0-0.70","27","1","2022-11-29 21:24:53","2df368f4e41f066fd1c82c297b4a1108","186.79.181.25","Mozilla/5.0 (Windows NT 10.0; Win64; x64) AppleWebKit/537.36 (KHTML, like Gecko) Chrome/107.0.0.0 Safari/537.36","WebKit","Chrome","107.0.0.0","Windows","10.0","[0]","","21","3",""
"9977","You drop a bowling ball on a chocolate ice-cream <br> T&uacute tiras una bola de boliche a un helado de chocolate","{""Q0"":3}","trial","97261","survey-likert","88","1750793","0.0-5.0-0.71","27","1","2022-11-29 21:24:53","2df368f4e41f066fd1c82c297b4a1108","186.79.181.25","Mozilla/5.0 (Windows NT 10.0; Win64; x64) AppleWebKit/537.36 (KHTML, like Gecko) Chrome/107.0.0.0 Safari/537.36","WebKit","Chrome","107.0.0.0","Windows","10.0","[0]","","11","3",""
"8089","
    <p style=""font-size:20px;""> You have completed the experiment portion! </p>
    <p style=""font-size:20px;""> Before you are done, we would like you to answer some basic demographic questions. </p>
    <p style=""font-size:20px;""> Note that your answers to these questions will not affect your compensation/credit. </p>
    <p style=""font-size:20px;""> Click the button below to continue.</p>
    ","0","demo","97261","html-button-response","89","1758886","0.0-6.0","27","1","2022-11-29 21:24:53","2df368f4e41f066fd1c82c297b4a1108","186.79.181.25","Mozilla/5.0 (Windows NT 10.0; Win64; x64) AppleWebKit/537.36 (KHTML, like Gecko) Chrome/107.0.0.0 Safari/537.36","WebKit","Chrome","107.0.0.0","Windows","10.0","","","","",""
"37275","","{""Age"":""24"",""Gender"":""Male"",""Education"":""18""}","demo","97261","survey-text","90","1796164","0.0-7.0-0.0","27","1","2022-11-29 21:24:53","2df368f4e41f066fd1c82c297b4a1108","186.79.181.25","Mozilla/5.0 (Windows NT 10.0; Win64; x64) AppleWebKit/537.36 (KHTML, like Gecko) Chrome/107.0.0.0 Safari/537.36","WebKit","Chrome","107.0.0.0","Windows","10.0","","","","",""
"17976","","{""Race"":[""Other""]}","demo","97261","survey-multi-select","91","1814145","0.0-7.0-1.0","27","1","2022-11-29 21:24:53","2df368f4e41f066fd1c82c297b4a1108","186.79.181.25","Mozilla/5.0 (Windows NT 10.0; Win64; x64) AppleWebKit/537.36 (KHTML, like Gecko) Chrome/107.0.0.0 Safari/537.36","WebKit","Chrome","107.0.0.0","Windows","10.0","[0]","","","",""
"33428","","{""Latino"":""Yes"",""Alert"":""Afternoon""}","demo","97261","survey-multi-choice","92","1847577","0.0-7.0-2.0","27","1","2022-11-29 21:24:53","2df368f4e41f066fd1c82c297b4a1108","186.79.181.25","Mozilla/5.0 (Windows NT 10.0; Win64; x64) AppleWebKit/537.36 (KHTML, like Gecko) Chrome/107.0.0.0 Safari/537.36","WebKit","Chrome","107.0.0.0","Windows","10.0","[0,1]","","","",""
"282350","","{""Q0"":""I might have doubted to respond some questions since there was a small but recurring mistake on the usage of some prepositions like \""on\"", which is translated to \""sobre\"" or \""encima de\"", and not \""a\"" or \""hacia\"" in most contexts""}","demo","97261","survey-text","93","2129931","0.0-7.0-3.0","27","1","2022-11-29 21:24:53","2df368f4e41f066fd1c82c297b4a1108","186.79.181.25","Mozilla/5.0 (Windows NT 10.0; Win64; x64) AppleWebKit/537.36 (KHTML, like Gecko) Chrome/107.0.0.0 Safari/537.36","WebKit","Chrome","107.0.0.0","Windows","10.0","","","","",""
"66464","<p>Thank you for participating! </p><strong>Your completion code is: CXEJB7NH. Please copy-paste this code and submit it on Prolific.</strong><p>Click <a href=""https://drive.google.com/file/d/1c70cdHFlc0AaR6RujLWLJwWkv1RbHQJY/view?usp=sharing"" target=""_blank"" rel=""noopener noreferrer"">here</a> to access the debriefing form and know more about our research. <p> Please click the button below to finish the experiment and save your data.</p> <p> IMPORTANT: Please <strong>do not leave this page </strong> without clicking the button below.</p> <p> You may close the tab/window after you click the button below.","0","","","html-button-response","94","2196398","0.0-8.0","27","1","2022-11-29 21:24:53","2df368f4e41f066fd1c82c297b4a1108","186.79.181.25","Mozilla/5.0 (Windows NT 10.0; Win64; x64) AppleWebKit/537.36 (KHTML, like Gecko) Chrome/107.0.0.0 Safari/537.36","WebKit","Chrome","107.0.0.0","Windows","10.0","","","","",""
