"rt","stimulus","response","typeoftrial","subject","trial_type","trial_index","time_elapsed","internal_node_id","run_id","condition","recorded_at","source_code_version","ip","user_agent","device","browser","browser_version","platform","platform_version","question_order","practice_rating","sentence_num","rating","Experiment"
"69337","
        <p style=""font-size:20px;""> Welcome! Thank you for your interest in our study. </p>
        <p style=""font-size:20px;""> This study is being conducted by researchers at Bowdoin College.</p>
        <p style=""font-size:20px;""> In this experiment, you will be asked to rate the accuracy of English and Spanish translations.</p>
        <p style=""font-size:20px;""> The entire experiment should not last more than 20 minutes. You will be paid $3 USD for your participation. </p>
        <p style=""font-size:20px;""> Please click <a href = ""https://drive.google.com/file/d/1L92a02eEKCpaAEipmqDcBCDR7rsarqFE/view?usp=sharing"" target = ""_blank"">here</a> to read the full consent form. </p>
        <p style=""font-size:20px;""> If you agree to participate, please click the button below to continue to experiment instructions.</p>
        ","0","consent","57180","html-button-response","0","69345","0.0-0.0","9","1","2022-11-29 21:24:32","2df368f4e41f066fd1c82c297b4a1108","86.127.234.103","Mozilla/5.0 (Windows NT 10.0; Win64; x64) AppleWebKit/537.36 (KHTML, like Gecko) Chrome/107.0.0.0 Safari/537.36","WebKit","Chrome","107.0.0.0","Windows","10.0","","","","",""
"3510","","{""ID"":""5d5a7d896c04b2001a1edff8""}","ID","57180","survey-text","1","72863","0.0-1.0","9","1","2022-11-29 21:24:32","2df368f4e41f066fd1c82c297b4a1108","86.127.234.103","Mozilla/5.0 (Windows NT 10.0; Win64; x64) AppleWebKit/537.36 (KHTML, like Gecko) Chrome/107.0.0.0 Safari/537.36","WebKit","Chrome","107.0.0.0","Windows","10.0","","","","",""
"10705","
        <p style=""font-size:20px;""> You are about to begin the practice test. </p>
        <p style=""font-size:20px;""> On each trial, you will see a sentence in English and its corresponding Spanish translation. </p>
        <p style=""font-size:20px;""> You will rate the accuracy of the translation on a scale from ""Not at all accurate"" to ""Very accurate."" </p>
        <p style=""font-size:20px;""> If you rate the translation as ""Somewhat innaccurate"" or ""Not at all accurate,"" you will be asked to provide your own translation or a reason why the translation is inaccurate. </p>
        <p style=""font-size:20px;""> Click the button below to continue to the practice session.</p>","0","instructions","57180","html-button-response","2","83571","0.0-2.0","9","1","2022-11-29 21:24:32","2df368f4e41f066fd1c82c297b4a1108","86.127.234.103","Mozilla/5.0 (Windows NT 10.0; Win64; x64) AppleWebKit/537.36 (KHTML, like Gecko) Chrome/107.0.0.0 Safari/537.36","WebKit","Chrome","107.0.0.0","Windows","10.0","","","","",""
"11446","You drop a rock on a phone <br> T&uacute tiras una piedra a un tel&eacutefono","{""Q0"":4}","practice","57180","survey-likert","3","95019","0.0-3.0-0.0","9","1","2022-11-29 21:24:32","2df368f4e41f066fd1c82c297b4a1108","86.127.234.103","Mozilla/5.0 (Windows NT 10.0; Win64; x64) AppleWebKit/537.36 (KHTML, like Gecko) Chrome/107.0.0.0 Safari/537.36","WebKit","Chrome","107.0.0.0","Windows","10.0","[0]","4","","",""
"10587","You see how an artist is running <br> T&uacute ves como un artista est&aacute corriendo","{""Q0"":4}","practice","57180","survey-likert","4","105615","0.0-3.0-0.1","9","1","2022-11-29 21:24:32","2df368f4e41f066fd1c82c297b4a1108","86.127.234.103","Mozilla/5.0 (Windows NT 10.0; Win64; x64) AppleWebKit/537.36 (KHTML, like Gecko) Chrome/107.0.0.0 Safari/537.36","WebKit","Chrome","107.0.0.0","Windows","10.0","[0]","4","","",""
"16729","You drop a bowling ball on a mircrowave <br> T&uacute tiras una bola de boliche a un horno","{""Q0"":1}","practice","57180","survey-likert","5","122351","0.0-3.0-0.2","9","1","2022-11-29 21:24:32","2df368f4e41f066fd1c82c297b4a1108","86.127.234.103","Mozilla/5.0 (Windows NT 10.0; Win64; x64) AppleWebKit/537.36 (KHTML, like Gecko) Chrome/107.0.0.0 Safari/537.36","WebKit","Chrome","107.0.0.0","Windows","10.0","[0]","1","","",""
"27909","You drop a bowling ball on a mircrowave <br> T&uacute tiras una bola de boliche a un horno","{""Q0"":""I would say: \""tiras una bala de bolos al microhondas\""""}","practice_low_rate","57180","survey-text","6","150278","0.0-3.0-1.2-0.2","9","1","2022-11-29 21:24:32","2df368f4e41f066fd1c82c297b4a1108","86.127.234.103","Mozilla/5.0 (Windows NT 10.0; Win64; x64) AppleWebKit/537.36 (KHTML, like Gecko) Chrome/107.0.0.0 Safari/537.36","WebKit","Chrome","107.0.0.0","Windows","10.0","","","6","",""
"7174","You see how a tiger is playing with a goose <br> T&uacute ves como un le&oacuten come una pizza","{""Q0"":0}","practice","57180","survey-likert","7","157454","0.0-3.0-0.3","9","1","2022-11-29 21:24:32","2df368f4e41f066fd1c82c297b4a1108","86.127.234.103","Mozilla/5.0 (Windows NT 10.0; Win64; x64) AppleWebKit/537.36 (KHTML, like Gecko) Chrome/107.0.0.0 Safari/537.36","WebKit","Chrome","107.0.0.0","Windows","10.0","[0]","0","","",""
"11774","You see how a tiger is playing with a goose <br> T&uacute ves como un le&oacuten come una pizza","{""Q0"":""Ves como un león juega con un pato/ganso""}","practice_low_rate","57180","survey-text","8","169236","0.0-3.0-1.3-0.3","9","1","2022-11-29 21:24:32","2df368f4e41f066fd1c82c297b4a1108","86.127.234.103","Mozilla/5.0 (Windows NT 10.0; Win64; x64) AppleWebKit/537.36 (KHTML, like Gecko) Chrome/107.0.0.0 Safari/537.36","WebKit","Chrome","107.0.0.0","Windows","10.0","","","5","",""
"10464","You see how a teacher is drawing a picture <br> T&uacute ves como un maestro pinta una foto","{""Q0"":4}","practice","57180","survey-likert","9","179702","0.0-3.0-0.4","9","1","2022-11-29 21:24:32","2df368f4e41f066fd1c82c297b4a1108","86.127.234.103","Mozilla/5.0 (Windows NT 10.0; Win64; x64) AppleWebKit/537.36 (KHTML, like Gecko) Chrome/107.0.0.0 Safari/537.36","WebKit","Chrome","107.0.0.0","Windows","10.0","[0]","4","","",""
"5411","You see how a duck is playing with a pumpkin <br> T&uacute ves como un pato est&aacute jugando con una calabaza","{""Q0"":4}","practice","57180","survey-likert","10","185120","0.0-3.0-0.5","9","1","2022-11-29 21:24:32","2df368f4e41f066fd1c82c297b4a1108","86.127.234.103","Mozilla/5.0 (Windows NT 10.0; Win64; x64) AppleWebKit/537.36 (KHTML, like Gecko) Chrome/107.0.0.0 Safari/537.36","WebKit","Chrome","107.0.0.0","Windows","10.0","[0]","4","","",""
"1758","<p style=""font-size:20px;"">You have now completed the practice session! </p>
        <p style=""font-size:20px;"">You will now move on to the main experiment. </p>
        <p style=""font-size:20px;"">Please click the button below to continue. </p>","0","movetoexp","57180","html-button-response","11","186884","0.0-4.0","9","1","2022-11-29 21:24:32","2df368f4e41f066fd1c82c297b4a1108","86.127.234.103","Mozilla/5.0 (Windows NT 10.0; Win64; x64) AppleWebKit/537.36 (KHTML, like Gecko) Chrome/107.0.0.0 Safari/537.36","WebKit","Chrome","107.0.0.0","Windows","10.0","","","","",""
"4785","You drop a towel on the TV <br> T&uacute tiras una toalla a la televisi&oacuten","{""Q0"":4}","trial","57180","survey-likert","12","191670","0.0-5.0-0.0","9","1","2022-11-29 21:24:32","2df368f4e41f066fd1c82c297b4a1108","86.127.234.103","Mozilla/5.0 (Windows NT 10.0; Win64; x64) AppleWebKit/537.36 (KHTML, like Gecko) Chrome/107.0.0.0 Safari/537.36","WebKit","Chrome","107.0.0.0","Windows","10.0","[0]","","53","4",""
"5752","You drop a watch on the laptop <br> T&uacute tiras un reloj al port&aacutetil","{""Q0"":4}","trial","57180","survey-likert","13","197431","0.0-5.0-0.1","9","1","2022-11-29 21:24:32","2df368f4e41f066fd1c82c297b4a1108","86.127.234.103","Mozilla/5.0 (Windows NT 10.0; Win64; x64) AppleWebKit/537.36 (KHTML, like Gecko) Chrome/107.0.0.0 Safari/537.36","WebKit","Chrome","107.0.0.0","Windows","10.0","[0]","","37","4",""
"6920","You see how a teenage girl is playing the piano <br> T&uacute ves como una ni&ntildea adolescente est&aacute tocando el piano","{""Q0"":3}","trial","57180","survey-likert","14","204357","0.0-5.0-0.2","9","1","2022-11-29 21:24:32","2df368f4e41f066fd1c82c297b4a1108","86.127.234.103","Mozilla/5.0 (Windows NT 10.0; Win64; x64) AppleWebKit/537.36 (KHTML, like Gecko) Chrome/107.0.0.0 Safari/537.36","WebKit","Chrome","107.0.0.0","Windows","10.0","[0]","","54","3",""
"10713","You see how a panda is resting on a tree <br> T&uacute ves como un panda est&aacute descansando en un &aacuterbol","{""Q0"":4}","trial","57180","survey-likert","15","215077","0.0-5.0-0.3","9","1","2022-11-29 21:24:32","2df368f4e41f066fd1c82c297b4a1108","86.127.234.103","Mozilla/5.0 (Windows NT 10.0; Win64; x64) AppleWebKit/537.36 (KHTML, like Gecko) Chrome/107.0.0.0 Safari/537.36","WebKit","Chrome","107.0.0.0","Windows","10.0","[0]","","57","4",""
"9169","You drop a bowling ball on a light bulb <br> T&uacute tiras una bola de boliche a una bombilla","{""Q0"":3}","trial","57180","survey-likert","16","224253","0.0-5.0-0.4","9","1","2022-11-29 21:24:32","2df368f4e41f066fd1c82c297b4a1108","86.127.234.103","Mozilla/5.0 (Windows NT 10.0; Win64; x64) AppleWebKit/537.36 (KHTML, like Gecko) Chrome/107.0.0.0 Safari/537.36","WebKit","Chrome","107.0.0.0","Windows","10.0","[0]","","14","3",""
"6297","You drop a bowling ball on a chocolate muffin <br> T&uacute tiras una bola de boliche a una magdalena de chocolate","{""Q0"":3}","trial","57180","survey-likert","17","230557","0.0-5.0-0.5","9","1","2022-11-29 21:24:32","2df368f4e41f066fd1c82c297b4a1108","86.127.234.103","Mozilla/5.0 (Windows NT 10.0; Win64; x64) AppleWebKit/537.36 (KHTML, like Gecko) Chrome/107.0.0.0 Safari/537.36","WebKit","Chrome","107.0.0.0","Windows","10.0","[0]","","16","3",""
"3849","You drop a bowling ball on a piece of cake <br> T&uacute tiras una bola de boliche a un trozo de pastel","{""Q0"":3}","trial","57180","survey-likert","18","234413","0.0-5.0-0.6","9","1","2022-11-29 21:24:32","2df368f4e41f066fd1c82c297b4a1108","86.127.234.103","Mozilla/5.0 (Windows NT 10.0; Win64; x64) AppleWebKit/537.36 (KHTML, like Gecko) Chrome/107.0.0.0 Safari/537.36","WebKit","Chrome","107.0.0.0","Windows","10.0","[0]","","2","3",""
"6801","You drop a bowling ball on a paper cup <br> T&uacute tiras una bola de boliche a un vaso de papel","{""Q0"":3}","trial","57180","survey-likert","19","241221","0.0-5.0-0.7","9","1","2022-11-29 21:24:32","2df368f4e41f066fd1c82c297b4a1108","86.127.234.103","Mozilla/5.0 (Windows NT 10.0; Win64; x64) AppleWebKit/537.36 (KHTML, like Gecko) Chrome/107.0.0.0 Safari/537.36","WebKit","Chrome","107.0.0.0","Windows","10.0","[0]","","24","3",""
"4541","You see how a kitten is playing in the sandbox <br> T&uacute ves como un gatito est&aacute jugando en la caja de arena","{""Q0"":4}","trial","57180","survey-likert","20","245769","0.0-5.0-0.8","9","1","2022-11-29 21:24:32","2df368f4e41f066fd1c82c297b4a1108","86.127.234.103","Mozilla/5.0 (Windows NT 10.0; Win64; x64) AppleWebKit/537.36 (KHTML, like Gecko) Chrome/107.0.0.0 Safari/537.36","WebKit","Chrome","107.0.0.0","Windows","10.0","[0]","","52","4",""
"6792","You drop a bowling ball on a tile <br> T&uacute tiras una bola de boliche a una baldosa","{""Q0"":3}","trial","57180","survey-likert","21","252569","0.0-5.0-0.9","9","1","2022-11-29 21:24:32","2df368f4e41f066fd1c82c297b4a1108","86.127.234.103","Mozilla/5.0 (Windows NT 10.0; Win64; x64) AppleWebKit/537.36 (KHTML, like Gecko) Chrome/107.0.0.0 Safari/537.36","WebKit","Chrome","107.0.0.0","Windows","10.0","[0]","","22","3",""
"3506","You see how an elephant is eating a watermelon <br> T&uacute ves como un elefante est&aacute comiendo una sand&iacutea","{""Q0"":4}","trial","57180","survey-likert","22","256080","0.0-5.0-0.10","9","1","2022-11-29 21:24:32","2df368f4e41f066fd1c82c297b4a1108","86.127.234.103","Mozilla/5.0 (Windows NT 10.0; Win64; x64) AppleWebKit/537.36 (KHTML, like Gecko) Chrome/107.0.0.0 Safari/537.36","WebKit","Chrome","107.0.0.0","Windows","10.0","[0]","","31","4",""
"7649","You see how a man is boiling potatoes <br> T&uacute ves a un hombre est&aacute hirviendo papas","{""Q0"":4}","trial","57180","survey-likert","23","263736","0.0-5.0-0.11","9","1","2022-11-29 21:24:32","2df368f4e41f066fd1c82c297b4a1108","86.127.234.103","Mozilla/5.0 (Windows NT 10.0; Win64; x64) AppleWebKit/537.36 (KHTML, like Gecko) Chrome/107.0.0.0 Safari/537.36","WebKit","Chrome","107.0.0.0","Windows","10.0","[0]","","46","4",""
"13289","You drop a bowling ball on an egg flan <br> T&uacute tiras una bola de boliche a un flan","{""Q0"":4}","trial","57180","survey-likert","24","277032","0.0-5.0-0.12","9","1","2022-11-29 21:24:32","2df368f4e41f066fd1c82c297b4a1108","86.127.234.103","Mozilla/5.0 (Windows NT 10.0; Win64; x64) AppleWebKit/537.36 (KHTML, like Gecko) Chrome/107.0.0.0 Safari/537.36","WebKit","Chrome","107.0.0.0","Windows","10.0","[0]","","7","4",""
"8457","You drop a bowling ball on a mirror <br> T&uacute tiras una bola de boliche a un espejo","{""Q0"":4}","trial","57180","survey-likert","25","285496","0.0-5.0-0.13","9","1","2022-11-29 21:24:32","2df368f4e41f066fd1c82c297b4a1108","86.127.234.103","Mozilla/5.0 (Windows NT 10.0; Win64; x64) AppleWebKit/537.36 (KHTML, like Gecko) Chrome/107.0.0.0 Safari/537.36","WebKit","Chrome","107.0.0.0","Windows","10.0","[0]","","15","4",""
"8233","You see how an actress is taking a microphone <br> T&uacute ves como una actriz est&aacute agarrando el micr&oacutefono","{""Q0"":1}","trial","57180","survey-likert","26","293736","0.0-5.0-0.14","9","1","2022-11-29 21:24:32","2df368f4e41f066fd1c82c297b4a1108","86.127.234.103","Mozilla/5.0 (Windows NT 10.0; Win64; x64) AppleWebKit/537.36 (KHTML, like Gecko) Chrome/107.0.0.0 Safari/537.36","WebKit","Chrome","107.0.0.0","Windows","10.0","[0]","","51","1",""
"19485","You see how an actress is taking a microphone <br> T&uacute ves como una actriz est&aacute agarrando el micr&oacutefono","{""Q0"":""Ves como una actriz roba/coge el micrófono\"" she takes it home or with herself""}","low_rate","57180","survey-text","27","313229","0.0-5.0-1.14-0.14","9","1","2022-11-29 21:24:32","2df368f4e41f066fd1c82c297b4a1108","86.127.234.103","Mozilla/5.0 (Windows NT 10.0; Win64; x64) AppleWebKit/537.36 (KHTML, like Gecko) Chrome/107.0.0.0 Safari/537.36","WebKit","Chrome","107.0.0.0","Windows","10.0","","","51","",""
"4666","You see how a cat is drinking water from a bowl <br> T&uacute ves como un gato est&aacute bebiendo agua de un cuenco","{""Q0"":4}","trial","57180","survey-likert","28","317898","0.0-5.0-0.15","9","1","2022-11-29 21:24:32","2df368f4e41f066fd1c82c297b4a1108","86.127.234.103","Mozilla/5.0 (Windows NT 10.0; Win64; x64) AppleWebKit/537.36 (KHTML, like Gecko) Chrome/107.0.0.0 Safari/537.36","WebKit","Chrome","107.0.0.0","Windows","10.0","[0]","","28","4",""
"3742","You drop a bowling ball on a donut <br> T&uacute tiras una bola de boliche a una rosquilla","{""Q0"":4}","trial","57180","survey-likert","29","321647","0.0-5.0-0.16","9","1","2022-11-29 21:24:32","2df368f4e41f066fd1c82c297b4a1108","86.127.234.103","Mozilla/5.0 (Windows NT 10.0; Win64; x64) AppleWebKit/537.36 (KHTML, like Gecko) Chrome/107.0.0.0 Safari/537.36","WebKit","Chrome","107.0.0.0","Windows","10.0","[0]","","17","4",""
"4761","You see how a horse is chewing hay <br> T&uacute ves como un caballo est&aacute masticando el heno","{""Q0"":4}","trial","57180","survey-likert","30","326414","0.0-5.0-0.17","9","1","2022-11-29 21:24:32","2df368f4e41f066fd1c82c297b4a1108","86.127.234.103","Mozilla/5.0 (Windows NT 10.0; Win64; x64) AppleWebKit/537.36 (KHTML, like Gecko) Chrome/107.0.0.0 Safari/537.36","WebKit","Chrome","107.0.0.0","Windows","10.0","[0]","","55","4",""
"4380","You drop a toothbrush on the sponge <br> T&uacute tiras un cepillo de dientes en la esponja","{""Q0"":4}","trial","57180","survey-likert","31","330801","0.0-5.0-0.18","9","1","2022-11-29 21:24:32","2df368f4e41f066fd1c82c297b4a1108","86.127.234.103","Mozilla/5.0 (Windows NT 10.0; Win64; x64) AppleWebKit/537.36 (KHTML, like Gecko) Chrome/107.0.0.0 Safari/537.36","WebKit","Chrome","107.0.0.0","Windows","10.0","[0]","","25","4",""
"13150","You see how a nurse is taking a syringe <br> T&uacute ves como una enfermera est&aacute agarrando una jeringuilla","{""Q0"":3}","trial","57180","survey-likert","32","343958","0.0-5.0-0.19","9","1","2022-11-29 21:24:32","2df368f4e41f066fd1c82c297b4a1108","86.127.234.103","Mozilla/5.0 (Windows NT 10.0; Win64; x64) AppleWebKit/537.36 (KHTML, like Gecko) Chrome/107.0.0.0 Safari/537.36","WebKit","Chrome","107.0.0.0","Windows","10.0","[0]","","48","3",""
"3548","You see how a parrot is eating an apple <br> T&uacute ves como un loro est&aacute comiendo una manzana","{""Q0"":4}","trial","57180","survey-likert","33","347512","0.0-5.0-0.20","9","1","2022-11-29 21:24:32","2df368f4e41f066fd1c82c297b4a1108","86.127.234.103","Mozilla/5.0 (Windows NT 10.0; Win64; x64) AppleWebKit/537.36 (KHTML, like Gecko) Chrome/107.0.0.0 Safari/537.36","WebKit","Chrome","107.0.0.0","Windows","10.0","[0]","","58","4",""
"4965","You drop a bowling ball on a blackberry <br> T&uacute tiras una bola de boliche a una mora","{""Q0"":4}","trial","57180","survey-likert","34","352487","0.0-5.0-0.21","9","1","2022-11-29 21:24:32","2df368f4e41f066fd1c82c297b4a1108","86.127.234.103","Mozilla/5.0 (Windows NT 10.0; Win64; x64) AppleWebKit/537.36 (KHTML, like Gecko) Chrome/107.0.0.0 Safari/537.36","WebKit","Chrome","107.0.0.0","Windows","10.0","[0]","","8","4",""
"3806","You see how a thief is stealing a wallet <br> T&uacute ves como un ladr&oacuten est&aacute robando una billetera","{""Q0"":4}","trial","57180","survey-likert","35","356299","0.0-5.0-0.22","9","1","2022-11-29 21:24:32","2df368f4e41f066fd1c82c297b4a1108","86.127.234.103","Mozilla/5.0 (Windows NT 10.0; Win64; x64) AppleWebKit/537.36 (KHTML, like Gecko) Chrome/107.0.0.0 Safari/537.36","WebKit","Chrome","107.0.0.0","Windows","10.0","[0]","","68","4",""
"3793","You see how a zebra is playing with a horse <br> T&uacute ves como una cebra est&aacute jugando con un caballo","{""Q0"":4}","trial","57180","survey-likert","36","360098","0.0-5.0-0.23","9","1","2022-11-29 21:24:32","2df368f4e41f066fd1c82c297b4a1108","86.127.234.103","Mozilla/5.0 (Windows NT 10.0; Win64; x64) AppleWebKit/537.36 (KHTML, like Gecko) Chrome/107.0.0.0 Safari/537.36","WebKit","Chrome","107.0.0.0","Windows","10.0","[0]","","66","4",""
"3621","You drop a bowling ball on a hat <br> T&uacute tiras una bola de boliche a una gorra","{""Q0"":4}","trial","57180","survey-likert","37","363726","0.0-5.0-0.24","9","1","2022-11-29 21:24:32","2df368f4e41f066fd1c82c297b4a1108","86.127.234.103","Mozilla/5.0 (Windows NT 10.0; Win64; x64) AppleWebKit/537.36 (KHTML, like Gecko) Chrome/107.0.0.0 Safari/537.36","WebKit","Chrome","107.0.0.0","Windows","10.0","[0]","","10","4",""
"5110","You see how a woman is paying with a debit card <br> T&uacute ves como una mujer est&aacute pagando con una tarjeta de d&eacutebito","{""Q0"":4}","trial","57180","survey-likert","38","368843","0.0-5.0-0.25","9","1","2022-11-29 21:24:32","2df368f4e41f066fd1c82c297b4a1108","86.127.234.103","Mozilla/5.0 (Windows NT 10.0; Win64; x64) AppleWebKit/537.36 (KHTML, like Gecko) Chrome/107.0.0.0 Safari/537.36","WebKit","Chrome","107.0.0.0","Windows","10.0","[0]","","64","4",""
"3477","You see how a butterfly is sitting on a flower <br> T&uacute ves como una mariposa est&aacute reposando en una flor","{""Q0"":4}","trial","57180","survey-likert","39","372328","0.0-5.0-0.26","9","1","2022-11-29 21:24:32","2df368f4e41f066fd1c82c297b4a1108","86.127.234.103","Mozilla/5.0 (Windows NT 10.0; Win64; x64) AppleWebKit/537.36 (KHTML, like Gecko) Chrome/107.0.0.0 Safari/537.36","WebKit","Chrome","107.0.0.0","Windows","10.0","[0]","","59","4",""
"2801","You see how a donkey is drinking water <br> T&uacute ves como un burro est&aacute bebiendo agua","{""Q0"":4}","trial","57180","survey-likert","40","375136","0.0-5.0-0.27","9","1","2022-11-29 21:24:32","2df368f4e41f066fd1c82c297b4a1108","86.127.234.103","Mozilla/5.0 (Windows NT 10.0; Win64; x64) AppleWebKit/537.36 (KHTML, like Gecko) Chrome/107.0.0.0 Safari/537.36","WebKit","Chrome","107.0.0.0","Windows","10.0","[0]","","45","4",""
"8465","You drop a bowling ball on glasses <br> T&uacute tiras una bola de boliche a unas gafas","{""Q0"":3}","trial","57180","survey-likert","41","383608","0.0-5.0-0.28","9","1","2022-11-29 21:24:32","2df368f4e41f066fd1c82c297b4a1108","86.127.234.103","Mozilla/5.0 (Windows NT 10.0; Win64; x64) AppleWebKit/537.36 (KHTML, like Gecko) Chrome/107.0.0.0 Safari/537.36","WebKit","Chrome","107.0.0.0","Windows","10.0","[0]","","9","3",""
"8229","You see how a puppy is playing with a ball <br> T&uacute ves como un cachorro est&aacute jugando con una pelota","{""Q0"":4}","trial","57180","survey-likert","42","391843","0.0-5.0-0.29","9","1","2022-11-29 21:24:32","2df368f4e41f066fd1c82c297b4a1108","86.127.234.103","Mozilla/5.0 (Windows NT 10.0; Win64; x64) AppleWebKit/537.36 (KHTML, like Gecko) Chrome/107.0.0.0 Safari/537.36","WebKit","Chrome","107.0.0.0","Windows","10.0","[0]","","34","4",""
"4285","You see how an owl is sitting on the branch <br> T&uacute ves como un b&uacuteho est&aacute reposando en una rama","{""Q0"":4}","trial","57180","survey-likert","43","396136","0.0-5.0-0.30","9","1","2022-11-29 21:24:32","2df368f4e41f066fd1c82c297b4a1108","86.127.234.103","Mozilla/5.0 (Windows NT 10.0; Win64; x64) AppleWebKit/537.36 (KHTML, like Gecko) Chrome/107.0.0.0 Safari/537.36","WebKit","Chrome","107.0.0.0","Windows","10.0","[0]","","69","4",""
"2725","You drop a bowling ball on a tomato <br> T&uacute tiras una bola de boliche a un tomate","{""Q0"":4}","trial","57180","survey-likert","44","398867","0.0-5.0-0.31","9","1","2022-11-29 21:24:32","2df368f4e41f066fd1c82c297b4a1108","86.127.234.103","Mozilla/5.0 (Windows NT 10.0; Win64; x64) AppleWebKit/537.36 (KHTML, like Gecko) Chrome/107.0.0.0 Safari/537.36","WebKit","Chrome","107.0.0.0","Windows","10.0","[0]","","23","4",""
"3825","You drop a bowling ball on a ceramic plate <br> T&uacute tiras una bola de boliche a un plato de cer&aacutemica","{""Q0"":4}","trial","57180","survey-likert","45","402699","0.0-5.0-0.32","9","1","2022-11-29 21:24:32","2df368f4e41f066fd1c82c297b4a1108","86.127.234.103","Mozilla/5.0 (Windows NT 10.0; Win64; x64) AppleWebKit/537.36 (KHTML, like Gecko) Chrome/107.0.0.0 Safari/537.36","WebKit","Chrome","107.0.0.0","Windows","10.0","[0]","","19","4",""
"5009","You drop a ring on the newspaper <br> T&uacute tiras un anillo al peri&oacutedico","{""Q0"":4}","trial","57180","survey-likert","46","407715","0.0-5.0-0.33","9","1","2022-11-29 21:24:32","2df368f4e41f066fd1c82c297b4a1108","86.127.234.103","Mozilla/5.0 (Windows NT 10.0; Win64; x64) AppleWebKit/537.36 (KHTML, like Gecko) Chrome/107.0.0.0 Safari/537.36","WebKit","Chrome","107.0.0.0","Windows","10.0","[0]","","41","4",""
"10001","You drop a thermometer on the box <br> T&uacute tiras un term&oacutemetro a la caja","{""Q0"":3}","trial","57180","survey-likert","47","417723","0.0-5.0-0.34","9","1","2022-11-29 21:24:32","2df368f4e41f066fd1c82c297b4a1108","86.127.234.103","Mozilla/5.0 (Windows NT 10.0; Win64; x64) AppleWebKit/537.36 (KHTML, like Gecko) Chrome/107.0.0.0 Safari/537.36","WebKit","Chrome","107.0.0.0","Windows","10.0","[0]","","70","3",""
"4273","You drop a bowling ball on an empty can of beer <br> T&uacute tiras una bola de boliche a una lata de cerveza vac&iacutea","{""Q0"":4}","trial","57180","survey-likert","48","422003","0.0-5.0-0.35","9","1","2022-11-29 21:24:32","2df368f4e41f066fd1c82c297b4a1108","86.127.234.103","Mozilla/5.0 (Windows NT 10.0; Win64; x64) AppleWebKit/537.36 (KHTML, like Gecko) Chrome/107.0.0.0 Safari/537.36","WebKit","Chrome","107.0.0.0","Windows","10.0","[0]","","3","4",""
"3512","You drop a bowling ball on a wine glass <br> T&uacute tiras una bola de boliche a una copa de vino","{""Q0"":4}","trial","57180","survey-likert","49","425523","0.0-5.0-0.36","9","1","2022-11-29 21:24:32","2df368f4e41f066fd1c82c297b4a1108","86.127.234.103","Mozilla/5.0 (Windows NT 10.0; Win64; x64) AppleWebKit/537.36 (KHTML, like Gecko) Chrome/107.0.0.0 Safari/537.36","WebKit","Chrome","107.0.0.0","Windows","10.0","[0]","","5","4",""
"3848","You see how a giraffe is playing with a zebra <br> T&uacute ves como una jirafa est&aacute jugando con una cebra","{""Q0"":4}","trial","57180","survey-likert","50","429379","0.0-5.0-0.37","9","1","2022-11-29 21:24:32","2df368f4e41f066fd1c82c297b4a1108","86.127.234.103","Mozilla/5.0 (Windows NT 10.0; Win64; x64) AppleWebKit/537.36 (KHTML, like Gecko) Chrome/107.0.0.0 Safari/537.36","WebKit","Chrome","107.0.0.0","Windows","10.0","[0]","","65","4",""
"3225","You drop a cabbage on the table <br> T&uacute tiras una col a la mesa","{""Q0"":4}","trial","57180","survey-likert","51","432611","0.0-5.0-0.38","9","1","2022-11-29 21:24:32","2df368f4e41f066fd1c82c297b4a1108","86.127.234.103","Mozilla/5.0 (Windows NT 10.0; Win64; x64) AppleWebKit/537.36 (KHTML, like Gecko) Chrome/107.0.0.0 Safari/537.36","WebKit","Chrome","107.0.0.0","Windows","10.0","[0]","","35","4",""
"3905","You drop a fork on the plate <br> T&uacute tiras un tenedor al plato","{""Q0"":4}","trial","57180","survey-likert","52","436523","0.0-5.0-0.39","9","1","2022-11-29 21:24:32","2df368f4e41f066fd1c82c297b4a1108","86.127.234.103","Mozilla/5.0 (Windows NT 10.0; Win64; x64) AppleWebKit/537.36 (KHTML, like Gecko) Chrome/107.0.0.0 Safari/537.36","WebKit","Chrome","107.0.0.0","Windows","10.0","[0]","","26","4",""
"3433","You drop a bowling ball on an egg <br> T&uacute tiras una bola de boliche a un huevo","{""Q0"":4}","trial","57180","survey-likert","53","439963","0.0-5.0-0.40","9","1","2022-11-29 21:24:32","2df368f4e41f066fd1c82c297b4a1108","86.127.234.103","Mozilla/5.0 (Windows NT 10.0; Win64; x64) AppleWebKit/537.36 (KHTML, like Gecko) Chrome/107.0.0.0 Safari/537.36","WebKit","Chrome","107.0.0.0","Windows","10.0","[0]","","6","4",""
"3505","You see how an astronaut is putting on a space suit <br> T&uacute ves como un astronauta se est&aacute poniendo su traje espacial","{""Q0"":4}","trial","57180","survey-likert","54","443475","0.0-5.0-0.41","9","1","2022-11-29 21:24:32","2df368f4e41f066fd1c82c297b4a1108","86.127.234.103","Mozilla/5.0 (Windows NT 10.0; Win64; x64) AppleWebKit/537.36 (KHTML, like Gecko) Chrome/107.0.0.0 Safari/537.36","WebKit","Chrome","107.0.0.0","Windows","10.0","[0]","","33","4",""
"2936","You see how a dentist is drinking a can of cola <br> T&uacute ves como un dentista est&aacute bebiendo una lata de cola","{""Q0"":4}","trial","57180","survey-likert","55","446418","0.0-5.0-0.42","9","1","2022-11-29 21:24:32","2df368f4e41f066fd1c82c297b4a1108","86.127.234.103","Mozilla/5.0 (Windows NT 10.0; Win64; x64) AppleWebKit/537.36 (KHTML, like Gecko) Chrome/107.0.0.0 Safari/537.36","WebKit","Chrome","107.0.0.0","Windows","10.0","[0]","","47","4",""
"2480","You drop a bowling ball on an iPhone <br> T&uacute tiras una bola de boliche a un iPhone","{""Q0"":4}","trial","57180","survey-likert","56","448906","0.0-5.0-0.43","9","1","2022-11-29 21:24:32","2df368f4e41f066fd1c82c297b4a1108","86.127.234.103","Mozilla/5.0 (Windows NT 10.0; Win64; x64) AppleWebKit/537.36 (KHTML, like Gecko) Chrome/107.0.0.0 Safari/537.36","WebKit","Chrome","107.0.0.0","Windows","10.0","[0]","","13","4",""
"4852","You drop a needle on the mouse pad <br> T&uacute tiras una aguja a la alfombrilla para el rat&oacuten","{""Q0"":4}","trial","57180","survey-likert","57","453766","0.0-5.0-0.44","9","1","2022-11-29 21:24:32","2df368f4e41f066fd1c82c297b4a1108","86.127.234.103","Mozilla/5.0 (Windows NT 10.0; Win64; x64) AppleWebKit/537.36 (KHTML, like Gecko) Chrome/107.0.0.0 Safari/537.36","WebKit","Chrome","107.0.0.0","Windows","10.0","[0]","","42","4",""
"6757","You see how a hairdresser is taking scissors <br> T&uacute ves como una peluquera est&aacute agarrando las tijeras","{""Q0"":4}","trial","57180","survey-likert","58","460530","0.0-5.0-0.45","9","1","2022-11-29 21:24:32","2df368f4e41f066fd1c82c297b4a1108","86.127.234.103","Mozilla/5.0 (Windows NT 10.0; Win64; x64) AppleWebKit/537.36 (KHTML, like Gecko) Chrome/107.0.0.0 Safari/537.36","WebKit","Chrome","107.0.0.0","Windows","10.0","[0]","","60","4",""
"4009","You drop a keyboard on the bed <br> T&uacute tiras un teclado a la cama","{""Q0"":4}","trial","57180","survey-likert","59","464546","0.0-5.0-0.46","9","1","2022-11-29 21:24:32","2df368f4e41f066fd1c82c297b4a1108","86.127.234.103","Mozilla/5.0 (Windows NT 10.0; Win64; x64) AppleWebKit/537.36 (KHTML, like Gecko) Chrome/107.0.0.0 Safari/537.36","WebKit","Chrome","107.0.0.0","Windows","10.0","[0]","","36","4",""
"4200","You see how a pilot is reading a book <br> T&uacute ves como un piloto est&aacute leyendo un libro","{""Q0"":4}","trial","57180","survey-likert","60","468754","0.0-5.0-0.47","9","1","2022-11-29 21:24:32","2df368f4e41f066fd1c82c297b4a1108","86.127.234.103","Mozilla/5.0 (Windows NT 10.0; Win64; x64) AppleWebKit/537.36 (KHTML, like Gecko) Chrome/107.0.0.0 Safari/537.36","WebKit","Chrome","107.0.0.0","Windows","10.0","[0]","","61","4",""
"4552","You drop a pencil on the shoe <br> T&uacute tiras un l&aacutepiz al zapato","{""Q0"":4}","trial","57180","survey-likert","61","473314","0.0-5.0-0.48","9","1","2022-11-29 21:24:32","2df368f4e41f066fd1c82c297b4a1108","86.127.234.103","Mozilla/5.0 (Windows NT 10.0; Win64; x64) AppleWebKit/537.36 (KHTML, like Gecko) Chrome/107.0.0.0 Safari/537.36","WebKit","Chrome","107.0.0.0","Windows","10.0","[0]","","40","4",""
"3937","You see how a photographer is taking a photo of a lion <br> T&uacute ves como un fot&oacutegrafo est&aacute tomando una foto de un le&oacuten","{""Q0"":4}","trial","57180","survey-likert","62","477258","0.0-5.0-0.49","9","1","2022-11-29 21:24:32","2df368f4e41f066fd1c82c297b4a1108","86.127.234.103","Mozilla/5.0 (Windows NT 10.0; Win64; x64) AppleWebKit/537.36 (KHTML, like Gecko) Chrome/107.0.0.0 Safari/537.36","WebKit","Chrome","107.0.0.0","Windows","10.0","[0]","","72","4",""
"4700","You see how a musician is playing a guitar <br> T&uacute ves como un m&uacutesico est&aacute tocando la guitarra","{""Q0"":4}","trial","57180","survey-likert","63","481966","0.0-5.0-0.50","9","1","2022-11-29 21:24:32","2df368f4e41f066fd1c82c297b4a1108","86.127.234.103","Mozilla/5.0 (Windows NT 10.0; Win64; x64) AppleWebKit/537.36 (KHTML, like Gecko) Chrome/107.0.0.0 Safari/537.36","WebKit","Chrome","107.0.0.0","Windows","10.0","[0]","","27","4",""
"3941","You drop a bowling ball on an iPAD <br> T&uacute tiras una bola de boliche a un iPad","{""Q0"":4}","trial","57180","survey-likert","64","485914","0.0-5.0-0.51","9","1","2022-11-29 21:24:32","2df368f4e41f066fd1c82c297b4a1108","86.127.234.103","Mozilla/5.0 (Windows NT 10.0; Win64; x64) AppleWebKit/537.36 (KHTML, like Gecko) Chrome/107.0.0.0 Safari/537.36","WebKit","Chrome","107.0.0.0","Windows","10.0","[0]","","12","4",""
"4992","You see how a man is playing with a cat <br> T&uacute ves como un hombre est&aacute jugando con un gato","{""Q0"":4}","trial","57180","survey-likert","65","490914","0.0-5.0-0.52","9","1","2022-11-29 21:24:32","2df368f4e41f066fd1c82c297b4a1108","86.127.234.103","Mozilla/5.0 (Windows NT 10.0; Win64; x64) AppleWebKit/537.36 (KHTML, like Gecko) Chrome/107.0.0.0 Safari/537.36","WebKit","Chrome","107.0.0.0","Windows","10.0","[0]","","67","4",""
"7384","You see how a cook is taking a knife <br> T&uacute ves como un cocinero est&aacute agarrando un cuchillo","{""Q0"":4}","trial","57180","survey-likert","66","498306","0.0-5.0-0.53","9","1","2022-11-29 21:24:32","2df368f4e41f066fd1c82c297b4a1108","86.127.234.103","Mozilla/5.0 (Windows NT 10.0; Win64; x64) AppleWebKit/537.36 (KHTML, like Gecko) Chrome/107.0.0.0 Safari/537.36","WebKit","Chrome","107.0.0.0","Windows","10.0","[0]","","71","4",""
"7448","You see how a woman is taking money out of a wallet <br> T&uacute ves como una mujer est&aacute sacando dinero de su billetera","{""Q0"":3}","trial","57180","survey-likert","67","505762","0.0-5.0-0.54","9","1","2022-11-29 21:24:32","2df368f4e41f066fd1c82c297b4a1108","86.127.234.103","Mozilla/5.0 (Windows NT 10.0; Win64; x64) AppleWebKit/537.36 (KHTML, like Gecko) Chrome/107.0.0.0 Safari/537.36","WebKit","Chrome","107.0.0.0","Windows","10.0","[0]","","44","3",""
"14180","You see how an old man is hammering a nail <br> T&uacute ves como un hombre anciano est&aacute martillando un clavo","{""Q0"":4}","trial","57180","survey-likert","68","519950","0.0-5.0-0.55","9","1","2022-11-29 21:24:32","2df368f4e41f066fd1c82c297b4a1108","86.127.234.103","Mozilla/5.0 (Windows NT 10.0; Win64; x64) AppleWebKit/537.36 (KHTML, like Gecko) Chrome/107.0.0.0 Safari/537.36","WebKit","Chrome","107.0.0.0","Windows","10.0","[0]","","29","4",""
"7344","You see how a mouse is eating cheese <br> T&uacute ves como el rat&oacuten est&aacute comiendo queso","{""Q0"":1}","trial","57180","survey-likert","69","527302","0.0-5.0-0.56","9","1","2022-11-29 21:24:32","2df368f4e41f066fd1c82c297b4a1108","86.127.234.103","Mozilla/5.0 (Windows NT 10.0; Win64; x64) AppleWebKit/537.36 (KHTML, like Gecko) Chrome/107.0.0.0 Safari/537.36","WebKit","Chrome","107.0.0.0","Windows","10.0","[0]","","56","1",""
"5255","You see how a mouse is eating cheese <br> T&uacute ves como el rat&oacuten est&aacute comiendo queso","{""Q0"":""un ratón""}","low_rate","57180","survey-text","70","532565","0.0-5.0-1.56-0.56","9","1","2022-11-29 21:24:32","2df368f4e41f066fd1c82c297b4a1108","86.127.234.103","Mozilla/5.0 (Windows NT 10.0; Win64; x64) AppleWebKit/537.36 (KHTML, like Gecko) Chrome/107.0.0.0 Safari/537.36","WebKit","Chrome","107.0.0.0","Windows","10.0","","","56","",""
"6452","You drop a remote on the rug <br> T&uacute tiras un control remoto a la alfombra","{""Q0"":1}","trial","57180","survey-likert","71","539021","0.0-5.0-0.57","9","1","2022-11-29 21:24:32","2df368f4e41f066fd1c82c297b4a1108","86.127.234.103","Mozilla/5.0 (Windows NT 10.0; Win64; x64) AppleWebKit/537.36 (KHTML, like Gecko) Chrome/107.0.0.0 Safari/537.36","WebKit","Chrome","107.0.0.0","Windows","10.0","[0]","","39","1",""
"3409","You drop a remote on the rug <br> T&uacute tiras un control remoto a la alfombra","{""Q0"":""mando""}","low_rate","57180","survey-text","72","542439","0.0-5.0-1.57-0.57","9","1","2022-11-29 21:24:32","2df368f4e41f066fd1c82c297b4a1108","86.127.234.103","Mozilla/5.0 (Windows NT 10.0; Win64; x64) AppleWebKit/537.36 (KHTML, like Gecko) Chrome/107.0.0.0 Safari/537.36","WebKit","Chrome","107.0.0.0","Windows","10.0","","","39","",""
"10349","You drop a cushion on the magazine <br> T&uacute tiras un coj&iacuten a la revista","{""Q0"":4}","trial","57180","survey-likert","73","552791","0.0-5.0-0.58","9","1","2022-11-29 21:24:32","2df368f4e41f066fd1c82c297b4a1108","86.127.234.103","Mozilla/5.0 (Windows NT 10.0; Win64; x64) AppleWebKit/537.36 (KHTML, like Gecko) Chrome/107.0.0.0 Safari/537.36","WebKit","Chrome","107.0.0.0","Windows","10.0","[0]","","38","4",""
"7429","You see how a doctor is taking a stethoscope <br> T&uacute ves como un doctor est&aacute agarrando un estetoscopio","{""Q0"":4}","trial","57180","survey-likert","74","560228","0.0-5.0-0.59","9","1","2022-11-29 21:24:32","2df368f4e41f066fd1c82c297b4a1108","86.127.234.103","Mozilla/5.0 (Windows NT 10.0; Win64; x64) AppleWebKit/537.36 (KHTML, like Gecko) Chrome/107.0.0.0 Safari/537.36","WebKit","Chrome","107.0.0.0","Windows","10.0","[0]","","49","4",""
"3055","You see how a boy is peeling a banana <br> T&uacute ves como un ni&ntildeo est&aacute pelando una banana","{""Q0"":4}","trial","57180","survey-likert","75","563291","0.0-5.0-0.60","9","1","2022-11-29 21:24:32","2df368f4e41f066fd1c82c297b4a1108","86.127.234.103","Mozilla/5.0 (Windows NT 10.0; Win64; x64) AppleWebKit/537.36 (KHTML, like Gecko) Chrome/107.0.0.0 Safari/537.36","WebKit","Chrome","107.0.0.0","Windows","10.0","[0]","","30","4",""
"2835","You see how a man is shaving his beard <br> T&uacute ves como un hombre se est&aacute afeitando la barba","{""Q0"":4}","trial","57180","survey-likert","76","566133","0.0-5.0-0.61","9","1","2022-11-29 21:24:32","2df368f4e41f066fd1c82c297b4a1108","86.127.234.103","Mozilla/5.0 (Windows NT 10.0; Win64; x64) AppleWebKit/537.36 (KHTML, like Gecko) Chrome/107.0.0.0 Safari/537.36","WebKit","Chrome","107.0.0.0","Windows","10.0","[0]","","43","4",""
"3448","You see how a president is writing in the notebook <br> T&uacute ves como un presidente est&aacute escribiendo en la libreta","{""Q0"":4}","trial","57180","survey-likert","77","569588","0.0-5.0-0.62","9","1","2022-11-29 21:24:32","2df368f4e41f066fd1c82c297b4a1108","86.127.234.103","Mozilla/5.0 (Windows NT 10.0; Win64; x64) AppleWebKit/537.36 (KHTML, like Gecko) Chrome/107.0.0.0 Safari/537.36","WebKit","Chrome","107.0.0.0","Windows","10.0","[0]","","63","4",""
"4355","You drop a bowling ball on a rice cake <br> T&uacute tiras una bola de boliche a una tortita de arroz","{""Q0"":4}","trial","57180","survey-likert","78","573950","0.0-5.0-0.63","9","1","2022-11-29 21:24:32","2df368f4e41f066fd1c82c297b4a1108","86.127.234.103","Mozilla/5.0 (Windows NT 10.0; Win64; x64) AppleWebKit/537.36 (KHTML, like Gecko) Chrome/107.0.0.0 Safari/537.36","WebKit","Chrome","107.0.0.0","Windows","10.0","[0]","","18","4",""
"3006","You drop a bowling ball on a porcelain figure <br> T&uacute tiras una bola de boliche a una figura de porcelana","{""Q0"":4}","trial","57180","survey-likert","79","576964","0.0-5.0-0.64","9","1","2022-11-29 21:24:32","2df368f4e41f066fd1c82c297b4a1108","86.127.234.103","Mozilla/5.0 (Windows NT 10.0; Win64; x64) AppleWebKit/537.36 (KHTML, like Gecko) Chrome/107.0.0.0 Safari/537.36","WebKit","Chrome","107.0.0.0","Windows","10.0","[0]","","1","4",""
"2896","You see how a police officer is talking on the phone <br> T&uacute ves como un polic&iacutea est&aacute hablando por el tel&eacutefono","{""Q0"":4}","trial","57180","survey-likert","80","579868","0.0-5.0-0.65","9","1","2022-11-29 21:24:32","2df368f4e41f066fd1c82c297b4a1108","86.127.234.103","Mozilla/5.0 (Windows NT 10.0; Win64; x64) AppleWebKit/537.36 (KHTML, like Gecko) Chrome/107.0.0.0 Safari/537.36","WebKit","Chrome","107.0.0.0","Windows","10.0","[0]","","62","4",""
"2369","You drop a bowling ball on a piece of sushi <br> T&uacute tiras una bola de boliche a un pedazo de sushi","{""Q0"":4}","trial","57180","survey-likert","81","582245","0.0-5.0-0.66","9","1","2022-11-29 21:24:32","2df368f4e41f066fd1c82c297b4a1108","86.127.234.103","Mozilla/5.0 (Windows NT 10.0; Win64; x64) AppleWebKit/537.36 (KHTML, like Gecko) Chrome/107.0.0.0 Safari/537.36","WebKit","Chrome","107.0.0.0","Windows","10.0","[0]","","21","4",""
"3863","You drop a bowling ball on a cracker <br> T&uacute tiras una bola de boliche a una galleta","{""Q0"":4}","trial","57180","survey-likert","82","586117","0.0-5.0-0.67","9","1","2022-11-29 21:24:32","2df368f4e41f066fd1c82c297b4a1108","86.127.234.103","Mozilla/5.0 (Windows NT 10.0; Win64; x64) AppleWebKit/537.36 (KHTML, like Gecko) Chrome/107.0.0.0 Safari/537.36","WebKit","Chrome","107.0.0.0","Windows","10.0","[0]","","4","4",""
"3669","You drop a bowling ball on a strawberry <br> T&uacute tiras una bola de boliche a una fresa","{""Q0"":4}","trial","57180","survey-likert","83","589793","0.0-5.0-0.68","9","1","2022-11-29 21:24:32","2df368f4e41f066fd1c82c297b4a1108","86.127.234.103","Mozilla/5.0 (Windows NT 10.0; Win64; x64) AppleWebKit/537.36 (KHTML, like Gecko) Chrome/107.0.0.0 Safari/537.36","WebKit","Chrome","107.0.0.0","Windows","10.0","[0]","","20","4",""
"2663","You drop a bowling ball on a chocolate ice-cream <br> T&uacute tiras una bola de boliche a un helado de chocolate","{""Q0"":4}","trial","57180","survey-likert","84","592464","0.0-5.0-0.69","9","1","2022-11-29 21:24:32","2df368f4e41f066fd1c82c297b4a1108","86.127.234.103","Mozilla/5.0 (Windows NT 10.0; Win64; x64) AppleWebKit/537.36 (KHTML, like Gecko) Chrome/107.0.0.0 Safari/537.36","WebKit","Chrome","107.0.0.0","Windows","10.0","[0]","","11","4",""
"5003","You see how a postman is driving a car <br> T&uacute ves como un cartero est&aacute conduciendo un coche","{""Q0"":4}","trial","57180","survey-likert","85","597475","0.0-5.0-0.70","9","1","2022-11-29 21:24:32","2df368f4e41f066fd1c82c297b4a1108","86.127.234.103","Mozilla/5.0 (Windows NT 10.0; Win64; x64) AppleWebKit/537.36 (KHTML, like Gecko) Chrome/107.0.0.0 Safari/537.36","WebKit","Chrome","107.0.0.0","Windows","10.0","[0]","","32","4",""
"10227","You see how a student is writing on a board <br> T&uacute ves como un estudiante est&aacute escribiendo en la pizarra","{""Q0"":4}","trial","57180","survey-likert","86","607711","0.0-5.0-0.71","9","1","2022-11-29 21:24:32","2df368f4e41f066fd1c82c297b4a1108","86.127.234.103","Mozilla/5.0 (Windows NT 10.0; Win64; x64) AppleWebKit/537.36 (KHTML, like Gecko) Chrome/107.0.0.0 Safari/537.36","WebKit","Chrome","107.0.0.0","Windows","10.0","[0]","","50","4",""
"4892","
    <p style=""font-size:20px;""> You have completed the experiment portion! </p>
    <p style=""font-size:20px;""> Before you are done, we would like you to answer some basic demographic questions. </p>
    <p style=""font-size:20px;""> Note that your answers to these questions will not affect your compensation/credit. </p>
    <p style=""font-size:20px;""> Click the button below to continue.</p>
    ","0","demo","57180","html-button-response","87","612612","0.0-6.0","9","1","2022-11-29 21:24:32","2df368f4e41f066fd1c82c297b4a1108","86.127.234.103","Mozilla/5.0 (Windows NT 10.0; Win64; x64) AppleWebKit/537.36 (KHTML, like Gecko) Chrome/107.0.0.0 Safari/537.36","WebKit","Chrome","107.0.0.0","Windows","10.0","","","","",""
"28210","","{""Age"":""25"",""Gender"":""female"",""Education"":""19""}","demo","57180","survey-text","88","640831","0.0-7.0-0.0","9","1","2022-11-29 21:24:32","2df368f4e41f066fd1c82c297b4a1108","86.127.234.103","Mozilla/5.0 (Windows NT 10.0; Win64; x64) AppleWebKit/537.36 (KHTML, like Gecko) Chrome/107.0.0.0 Safari/537.36","WebKit","Chrome","107.0.0.0","Windows","10.0","","","","",""
"2454","","{""Race"":[""White/Caucasian""]}","demo","57180","survey-multi-select","89","643294","0.0-7.0-1.0","9","1","2022-11-29 21:24:32","2df368f4e41f066fd1c82c297b4a1108","86.127.234.103","Mozilla/5.0 (Windows NT 10.0; Win64; x64) AppleWebKit/537.36 (KHTML, like Gecko) Chrome/107.0.0.0 Safari/537.36","WebKit","Chrome","107.0.0.0","Windows","10.0","[0]","","","",""
"7523","","{""Latino"":""Yes"",""Alert"":""Morning""}","demo","57180","survey-multi-choice","90","650825","0.0-7.0-2.0","9","1","2022-11-29 21:24:32","2df368f4e41f066fd1c82c297b4a1108","86.127.234.103","Mozilla/5.0 (Windows NT 10.0; Win64; x64) AppleWebKit/537.36 (KHTML, like Gecko) Chrome/107.0.0.0 Safari/537.36","WebKit","Chrome","107.0.0.0","Windows","10.0","[0,1]","","","",""
"19578","","{""Q0"":""I was thinking in castillian spanish so maybe there might be some differences within the words.""}","demo","57180","survey-text","91","670414","0.0-7.0-3.0","9","1","2022-11-29 21:24:32","2df368f4e41f066fd1c82c297b4a1108","86.127.234.103","Mozilla/5.0 (Windows NT 10.0; Win64; x64) AppleWebKit/537.36 (KHTML, like Gecko) Chrome/107.0.0.0 Safari/537.36","WebKit","Chrome","107.0.0.0","Windows","10.0","","","","",""
"8955","<p>Thank you for participating! </p><strong>Your completion code is: CXEJB7NH. Please copy-paste this code and submit it on Prolific.</strong><p>Click <a href=""https://drive.google.com/file/d/1c70cdHFlc0AaR6RujLWLJwWkv1RbHQJY/view?usp=sharing"" target=""_blank"" rel=""noopener noreferrer"">here</a> to access the debriefing form and know more about our research. <p> Please click the button below to finish the experiment and save your data.</p> <p> IMPORTANT: Please <strong>do not leave this page </strong> without clicking the button below.</p> <p> You may close the tab/window after you click the button below.","0","","","html-button-response","92","679372","0.0-8.0","9","1","2022-11-29 21:24:32","2df368f4e41f066fd1c82c297b4a1108","86.127.234.103","Mozilla/5.0 (Windows NT 10.0; Win64; x64) AppleWebKit/537.36 (KHTML, like Gecko) Chrome/107.0.0.0 Safari/537.36","WebKit","Chrome","107.0.0.0","Windows","10.0","","","","",""
