"rt","stimulus","response","typeoftrial","subject","trial_type","trial_index","time_elapsed","internal_node_id","run_id","condition","recorded_at","source_code_version","ip","user_agent","device","browser","browser_version","platform","platform_version","question_order","practice_rating","sentence_num","rating","Experiment"
"20527","
        <p style=""font-size:20px;""> Welcome! Thank you for your interest in our study. </p>
        <p style=""font-size:20px;""> This study is being conducted by researchers at Bowdoin College.</p>
        <p style=""font-size:20px;""> In this experiment, you will be asked to rate the accuracy of English and Spanish translations.</p>
        <p style=""font-size:20px;""> The entire experiment should not last more than 20 minutes. You will be paid $3 USD for your participation. </p>
        <p style=""font-size:20px;""> Please click <a href = ""https://drive.google.com/file/d/1L92a02eEKCpaAEipmqDcBCDR7rsarqFE/view?usp=sharing"" target = ""_blank"">here</a> to read the full consent form. </p>
        <p style=""font-size:20px;""> If you agree to participate, please click the button below to continue to experiment instructions.</p>
        ","0","consent","18785","html-button-response","0","20533","0.0-0.0","23","1","2022-11-29 21:24:51","2df368f4e41f066fd1c82c297b4a1108","187.188.73.75","Mozilla/5.0 (Macintosh; Intel Mac OS X 10_15_7) AppleWebKit/537.36 (KHTML, like Gecko) Chrome/107.0.0.0 Safari/537.36","Macintosh","Chrome","107.0.0.0","OS X","10_15_7","","","","",""
"9812","","{""ID"":""613ecc6237e3e4dd76a14605""}","ID","18785","survey-text","1","30351","0.0-1.0","23","1","2022-11-29 21:24:51","2df368f4e41f066fd1c82c297b4a1108","187.188.73.75","Mozilla/5.0 (Macintosh; Intel Mac OS X 10_15_7) AppleWebKit/537.36 (KHTML, like Gecko) Chrome/107.0.0.0 Safari/537.36","Macintosh","Chrome","107.0.0.0","OS X","10_15_7","","","","",""
"17449","
        <p style=""font-size:20px;""> You are about to begin the practice test. </p>
        <p style=""font-size:20px;""> On each trial, you will see a sentence in English and its corresponding Spanish translation. </p>
        <p style=""font-size:20px;""> You will rate the accuracy of the translation on a scale from ""Not at all accurate"" to ""Very accurate."" </p>
        <p style=""font-size:20px;""> If you rate the translation as ""Somewhat innaccurate"" or ""Not at all accurate,"" you will be asked to provide your own translation or a reason why the translation is inaccurate. </p>
        <p style=""font-size:20px;""> Click the button below to continue to the practice session.</p>","0","instructions","18785","html-button-response","2","47801","0.0-2.0","23","1","2022-11-29 21:24:51","2df368f4e41f066fd1c82c297b4a1108","187.188.73.75","Mozilla/5.0 (Macintosh; Intel Mac OS X 10_15_7) AppleWebKit/537.36 (KHTML, like Gecko) Chrome/107.0.0.0 Safari/537.36","Macintosh","Chrome","107.0.0.0","OS X","10_15_7","","","","",""
"14465","You see how a duck is playing with a pumpkin <br> T&uacute ves como un pato est&aacute jugando con una calabaza","{""Q0"":4}","practice","18785","survey-likert","3","62270","0.0-3.0-0.0","23","1","2022-11-29 21:24:51","2df368f4e41f066fd1c82c297b4a1108","187.188.73.75","Mozilla/5.0 (Macintosh; Intel Mac OS X 10_15_7) AppleWebKit/537.36 (KHTML, like Gecko) Chrome/107.0.0.0 Safari/537.36","Macintosh","Chrome","107.0.0.0","OS X","10_15_7","[0]","4","","",""
"12065","You see how a tiger is playing with a goose <br> T&uacute ves como un le&oacuten come una pizza","{""Q0"":0}","practice","18785","survey-likert","4","74339","0.0-3.0-0.1","23","1","2022-11-29 21:24:51","2df368f4e41f066fd1c82c297b4a1108","187.188.73.75","Mozilla/5.0 (Macintosh; Intel Mac OS X 10_15_7) AppleWebKit/537.36 (KHTML, like Gecko) Chrome/107.0.0.0 Safari/537.36","Macintosh","Chrome","107.0.0.0","OS X","10_15_7","[0]","0","","",""
"41772","You see how a tiger is playing with a goose <br> T&uacute ves como un le&oacuten come una pizza","{""Q0"":""se usan palabras incorrectas en la traducción""}","practice_low_rate","18785","survey-text","5","116119","0.0-3.0-1.1-0.1","23","1","2022-11-29 21:24:51","2df368f4e41f066fd1c82c297b4a1108","187.188.73.75","Mozilla/5.0 (Macintosh; Intel Mac OS X 10_15_7) AppleWebKit/537.36 (KHTML, like Gecko) Chrome/107.0.0.0 Safari/537.36","Macintosh","Chrome","107.0.0.0","OS X","10_15_7","","","5","",""
"8704","You see how a teacher is drawing a picture <br> T&uacute ves como un maestro pinta una foto","{""Q0"":4}","practice","18785","survey-likert","6","124825","0.0-3.0-0.2","23","1","2022-11-29 21:24:51","2df368f4e41f066fd1c82c297b4a1108","187.188.73.75","Mozilla/5.0 (Macintosh; Intel Mac OS X 10_15_7) AppleWebKit/537.36 (KHTML, like Gecko) Chrome/107.0.0.0 Safari/537.36","Macintosh","Chrome","107.0.0.0","OS X","10_15_7","[0]","4","","",""
"5274","You see how an artist is running <br> T&uacute ves como un artista est&aacute corriendo","{""Q0"":4}","practice","18785","survey-likert","7","130105","0.0-3.0-0.3","23","1","2022-11-29 21:24:51","2df368f4e41f066fd1c82c297b4a1108","187.188.73.75","Mozilla/5.0 (Macintosh; Intel Mac OS X 10_15_7) AppleWebKit/537.36 (KHTML, like Gecko) Chrome/107.0.0.0 Safari/537.36","Macintosh","Chrome","107.0.0.0","OS X","10_15_7","[0]","4","","",""
"9734","You drop a bowling ball on a mircrowave <br> T&uacute tiras una bola de boliche a un horno","{""Q0"":3}","practice","18785","survey-likert","8","139845","0.0-3.0-0.4","23","1","2022-11-29 21:24:51","2df368f4e41f066fd1c82c297b4a1108","187.188.73.75","Mozilla/5.0 (Macintosh; Intel Mac OS X 10_15_7) AppleWebKit/537.36 (KHTML, like Gecko) Chrome/107.0.0.0 Safari/537.36","Macintosh","Chrome","107.0.0.0","OS X","10_15_7","[0]","3","","",""
"9975","You drop a rock on a phone <br> T&uacute tiras una piedra a un tel&eacutefono","{""Q0"":3}","practice","18785","survey-likert","9","149824","0.0-3.0-0.5","23","1","2022-11-29 21:24:51","2df368f4e41f066fd1c82c297b4a1108","187.188.73.75","Mozilla/5.0 (Macintosh; Intel Mac OS X 10_15_7) AppleWebKit/537.36 (KHTML, like Gecko) Chrome/107.0.0.0 Safari/537.36","Macintosh","Chrome","107.0.0.0","OS X","10_15_7","[0]","3","","",""
"3119","<p style=""font-size:20px;"">You have now completed the practice session! </p>
        <p style=""font-size:20px;"">You will now move on to the main experiment. </p>
        <p style=""font-size:20px;"">Please click the button below to continue. </p>","0","movetoexp","18785","html-button-response","10","152949","0.0-4.0","23","1","2022-11-29 21:24:51","2df368f4e41f066fd1c82c297b4a1108","187.188.73.75","Mozilla/5.0 (Macintosh; Intel Mac OS X 10_15_7) AppleWebKit/537.36 (KHTML, like Gecko) Chrome/107.0.0.0 Safari/537.36","Macintosh","Chrome","107.0.0.0","OS X","10_15_7","","","","",""
"13650","You see how a mouse is eating cheese <br> T&uacute ves como el rat&oacuten est&aacute comiendo queso","{""Q0"":4}","trial","18785","survey-likert","11","166602","0.0-5.0-0.0","23","1","2022-11-29 21:24:51","2df368f4e41f066fd1c82c297b4a1108","187.188.73.75","Mozilla/5.0 (Macintosh; Intel Mac OS X 10_15_7) AppleWebKit/537.36 (KHTML, like Gecko) Chrome/107.0.0.0 Safari/537.36","Macintosh","Chrome","107.0.0.0","OS X","10_15_7","[0]","","56","4",""
"5258","You drop a bowling ball on a wine glass <br> T&uacute tiras una bola de boliche a una copa de vino","{""Q0"":4}","trial","18785","survey-likert","12","171871","0.0-5.0-0.1","23","1","2022-11-29 21:24:51","2df368f4e41f066fd1c82c297b4a1108","187.188.73.75","Mozilla/5.0 (Macintosh; Intel Mac OS X 10_15_7) AppleWebKit/537.36 (KHTML, like Gecko) Chrome/107.0.0.0 Safari/537.36","Macintosh","Chrome","107.0.0.0","OS X","10_15_7","[0]","","5","4",""
"9887","You drop a needle on the mouse pad <br> T&uacute tiras una aguja a la alfombrilla para el rat&oacuten","{""Q0"":4}","trial","18785","survey-likert","13","181769","0.0-5.0-0.2","23","1","2022-11-29 21:24:51","2df368f4e41f066fd1c82c297b4a1108","187.188.73.75","Mozilla/5.0 (Macintosh; Intel Mac OS X 10_15_7) AppleWebKit/537.36 (KHTML, like Gecko) Chrome/107.0.0.0 Safari/537.36","Macintosh","Chrome","107.0.0.0","OS X","10_15_7","[0]","","42","4",""
"6893","You see how an owl is sitting on the branch <br> T&uacute ves como un b&uacuteho est&aacute reposando en una rama","{""Q0"":4}","trial","18785","survey-likert","14","188671","0.0-5.0-0.3","23","1","2022-11-29 21:24:51","2df368f4e41f066fd1c82c297b4a1108","187.188.73.75","Mozilla/5.0 (Macintosh; Intel Mac OS X 10_15_7) AppleWebKit/537.36 (KHTML, like Gecko) Chrome/107.0.0.0 Safari/537.36","Macintosh","Chrome","107.0.0.0","OS X","10_15_7","[0]","","69","4",""
"18331","You see how a dentist is drinking a can of cola <br> T&uacute ves como un dentista est&aacute bebiendo una lata de cola","{""Q0"":4}","trial","18785","survey-likert","15","207008","0.0-5.0-0.4","23","1","2022-11-29 21:24:51","2df368f4e41f066fd1c82c297b4a1108","187.188.73.75","Mozilla/5.0 (Macintosh; Intel Mac OS X 10_15_7) AppleWebKit/537.36 (KHTML, like Gecko) Chrome/107.0.0.0 Safari/537.36","Macintosh","Chrome","107.0.0.0","OS X","10_15_7","[0]","","47","4",""
"33684","You drop a bowling ball on a paper cup <br> T&uacute tiras una bola de boliche a un vaso de papel","{""Q0"":4}","trial","18785","survey-likert","16","240699","0.0-5.0-0.5","23","1","2022-11-29 21:24:51","2df368f4e41f066fd1c82c297b4a1108","187.188.73.75","Mozilla/5.0 (Macintosh; Intel Mac OS X 10_15_7) AppleWebKit/537.36 (KHTML, like Gecko) Chrome/107.0.0.0 Safari/537.36","Macintosh","Chrome","107.0.0.0","OS X","10_15_7","[0]","","24","4",""
"6626","You drop a bowling ball on a strawberry <br> T&uacute tiras una bola de boliche a una fresa","{""Q0"":3}","trial","18785","survey-likert","17","247331","0.0-5.0-0.6","23","1","2022-11-29 21:24:51","2df368f4e41f066fd1c82c297b4a1108","187.188.73.75","Mozilla/5.0 (Macintosh; Intel Mac OS X 10_15_7) AppleWebKit/537.36 (KHTML, like Gecko) Chrome/107.0.0.0 Safari/537.36","Macintosh","Chrome","107.0.0.0","OS X","10_15_7","[0]","","20","3",""
"6767","You see how a zebra is playing with a horse <br> T&uacute ves como una cebra est&aacute jugando con un caballo","{""Q0"":4}","trial","18785","survey-likert","18","254103","0.0-5.0-0.7","23","1","2022-11-29 21:24:51","2df368f4e41f066fd1c82c297b4a1108","187.188.73.75","Mozilla/5.0 (Macintosh; Intel Mac OS X 10_15_7) AppleWebKit/537.36 (KHTML, like Gecko) Chrome/107.0.0.0 Safari/537.36","Macintosh","Chrome","107.0.0.0","OS X","10_15_7","[0]","","66","4",""
"20012","You see how an old man is hammering a nail <br> T&uacute ves como un hombre anciano est&aacute martillando un clavo","{""Q0"":4}","trial","18785","survey-likert","19","274120","0.0-5.0-0.8","23","1","2022-11-29 21:24:51","2df368f4e41f066fd1c82c297b4a1108","187.188.73.75","Mozilla/5.0 (Macintosh; Intel Mac OS X 10_15_7) AppleWebKit/537.36 (KHTML, like Gecko) Chrome/107.0.0.0 Safari/537.36","Macintosh","Chrome","107.0.0.0","OS X","10_15_7","[0]","","29","4",""
"7566","You see how a woman is paying with a debit card <br> T&uacute ves como una mujer est&aacute pagando con una tarjeta de d&eacutebito","{""Q0"":4}","trial","18785","survey-likert","20","281692","0.0-5.0-0.9","23","1","2022-11-29 21:24:51","2df368f4e41f066fd1c82c297b4a1108","187.188.73.75","Mozilla/5.0 (Macintosh; Intel Mac OS X 10_15_7) AppleWebKit/537.36 (KHTML, like Gecko) Chrome/107.0.0.0 Safari/537.36","Macintosh","Chrome","107.0.0.0","OS X","10_15_7","[0]","","64","4",""
"4872","You see how a boy is peeling a banana <br> T&uacute ves como un ni&ntildeo est&aacute pelando una banana","{""Q0"":4}","trial","18785","survey-likert","21","286570","0.0-5.0-0.10","23","1","2022-11-29 21:24:51","2df368f4e41f066fd1c82c297b4a1108","187.188.73.75","Mozilla/5.0 (Macintosh; Intel Mac OS X 10_15_7) AppleWebKit/537.36 (KHTML, like Gecko) Chrome/107.0.0.0 Safari/537.36","Macintosh","Chrome","107.0.0.0","OS X","10_15_7","[0]","","30","4",""
"8621","You drop a bowling ball on an empty can of beer <br> T&uacute tiras una bola de boliche a una lata de cerveza vac&iacutea","{""Q0"":4}","trial","18785","survey-likert","22","295197","0.0-5.0-0.11","23","1","2022-11-29 21:24:51","2df368f4e41f066fd1c82c297b4a1108","187.188.73.75","Mozilla/5.0 (Macintosh; Intel Mac OS X 10_15_7) AppleWebKit/537.36 (KHTML, like Gecko) Chrome/107.0.0.0 Safari/537.36","Macintosh","Chrome","107.0.0.0","OS X","10_15_7","[0]","","3","4",""
"6995","You see how a pilot is reading a book <br> T&uacute ves como un piloto est&aacute leyendo un libro","{""Q0"":4}","trial","18785","survey-likert","23","302198","0.0-5.0-0.12","23","1","2022-11-29 21:24:51","2df368f4e41f066fd1c82c297b4a1108","187.188.73.75","Mozilla/5.0 (Macintosh; Intel Mac OS X 10_15_7) AppleWebKit/537.36 (KHTML, like Gecko) Chrome/107.0.0.0 Safari/537.36","Macintosh","Chrome","107.0.0.0","OS X","10_15_7","[0]","","61","4",""
"6595","You drop a watch on the laptop <br> T&uacute tiras un reloj al port&aacutetil","{""Q0"":4}","trial","18785","survey-likert","24","308798","0.0-5.0-0.13","23","1","2022-11-29 21:24:51","2df368f4e41f066fd1c82c297b4a1108","187.188.73.75","Mozilla/5.0 (Macintosh; Intel Mac OS X 10_15_7) AppleWebKit/537.36 (KHTML, like Gecko) Chrome/107.0.0.0 Safari/537.36","Macintosh","Chrome","107.0.0.0","OS X","10_15_7","[0]","","37","4",""
"9269","You see how a hairdresser is taking scissors <br> T&uacute ves como una peluquera est&aacute agarrando las tijeras","{""Q0"":4}","trial","18785","survey-likert","25","318074","0.0-5.0-0.14","23","1","2022-11-29 21:24:51","2df368f4e41f066fd1c82c297b4a1108","187.188.73.75","Mozilla/5.0 (Macintosh; Intel Mac OS X 10_15_7) AppleWebKit/537.36 (KHTML, like Gecko) Chrome/107.0.0.0 Safari/537.36","Macintosh","Chrome","107.0.0.0","OS X","10_15_7","[0]","","60","4",""
"4905","You see how a puppy is playing with a ball <br> T&uacute ves como un cachorro est&aacute jugando con una pelota","{""Q0"":4}","trial","18785","survey-likert","26","322984","0.0-5.0-0.15","23","1","2022-11-29 21:24:51","2df368f4e41f066fd1c82c297b4a1108","187.188.73.75","Mozilla/5.0 (Macintosh; Intel Mac OS X 10_15_7) AppleWebKit/537.36 (KHTML, like Gecko) Chrome/107.0.0.0 Safari/537.36","Macintosh","Chrome","107.0.0.0","OS X","10_15_7","[0]","","34","4",""
"7747","You see how a teenage girl is playing the piano <br> T&uacute ves como una ni&ntildea adolescente est&aacute tocando el piano","{""Q0"":4}","trial","18785","survey-likert","27","330738","0.0-5.0-0.16","23","1","2022-11-29 21:24:51","2df368f4e41f066fd1c82c297b4a1108","187.188.73.75","Mozilla/5.0 (Macintosh; Intel Mac OS X 10_15_7) AppleWebKit/537.36 (KHTML, like Gecko) Chrome/107.0.0.0 Safari/537.36","Macintosh","Chrome","107.0.0.0","OS X","10_15_7","[0]","","54","4",""
"7218","You drop a bowling ball on a blackberry <br> T&uacute tiras una bola de boliche a una mora","{""Q0"":4}","trial","18785","survey-likert","28","337960","0.0-5.0-0.17","23","1","2022-11-29 21:24:51","2df368f4e41f066fd1c82c297b4a1108","187.188.73.75","Mozilla/5.0 (Macintosh; Intel Mac OS X 10_15_7) AppleWebKit/537.36 (KHTML, like Gecko) Chrome/107.0.0.0 Safari/537.36","Macintosh","Chrome","107.0.0.0","OS X","10_15_7","[0]","","8","4",""
"6210","You drop a bowling ball on a ceramic plate <br> T&uacute tiras una bola de boliche a un plato de cer&aacutemica","{""Q0"":4}","trial","18785","survey-likert","29","344177","0.0-5.0-0.18","23","1","2022-11-29 21:24:51","2df368f4e41f066fd1c82c297b4a1108","187.188.73.75","Mozilla/5.0 (Macintosh; Intel Mac OS X 10_15_7) AppleWebKit/537.36 (KHTML, like Gecko) Chrome/107.0.0.0 Safari/537.36","Macintosh","Chrome","107.0.0.0","OS X","10_15_7","[0]","","19","4",""
"9403","You drop a thermometer on the box <br> T&uacute tiras un term&oacutemetro a la caja","{""Q0"":3}","trial","18785","survey-likert","30","353586","0.0-5.0-0.19","23","1","2022-11-29 21:24:51","2df368f4e41f066fd1c82c297b4a1108","187.188.73.75","Mozilla/5.0 (Macintosh; Intel Mac OS X 10_15_7) AppleWebKit/537.36 (KHTML, like Gecko) Chrome/107.0.0.0 Safari/537.36","Macintosh","Chrome","107.0.0.0","OS X","10_15_7","[0]","","70","3",""
"21631","You drop a cabbage on the table <br> T&uacute tiras una col a la mesa","{""Q0"":4}","trial","18785","survey-likert","31","375223","0.0-5.0-0.20","23","1","2022-11-29 21:24:51","2df368f4e41f066fd1c82c297b4a1108","187.188.73.75","Mozilla/5.0 (Macintosh; Intel Mac OS X 10_15_7) AppleWebKit/537.36 (KHTML, like Gecko) Chrome/107.0.0.0 Safari/537.36","Macintosh","Chrome","107.0.0.0","OS X","10_15_7","[0]","","35","4",""
"13111","You drop a toothbrush on the sponge <br> T&uacute tiras un cepillo de dientes en la esponja","{""Q0"":4}","trial","18785","survey-likert","32","388338","0.0-5.0-0.21","23","1","2022-11-29 21:24:51","2df368f4e41f066fd1c82c297b4a1108","187.188.73.75","Mozilla/5.0 (Macintosh; Intel Mac OS X 10_15_7) AppleWebKit/537.36 (KHTML, like Gecko) Chrome/107.0.0.0 Safari/537.36","Macintosh","Chrome","107.0.0.0","OS X","10_15_7","[0]","","25","4",""
"3527","You drop a bowling ball on a donut <br> T&uacute tiras una bola de boliche a una rosquilla","{""Q0"":4}","trial","18785","survey-likert","33","391868","0.0-5.0-0.22","23","1","2022-11-29 21:24:51","2df368f4e41f066fd1c82c297b4a1108","187.188.73.75","Mozilla/5.0 (Macintosh; Intel Mac OS X 10_15_7) AppleWebKit/537.36 (KHTML, like Gecko) Chrome/107.0.0.0 Safari/537.36","Macintosh","Chrome","107.0.0.0","OS X","10_15_7","[0]","","17","4",""
"4076","You drop a bowling ball on a chocolate ice-cream <br> T&uacute tiras una bola de boliche a un helado de chocolate","{""Q0"":4}","trial","18785","survey-likert","34","395949","0.0-5.0-0.23","23","1","2022-11-29 21:24:51","2df368f4e41f066fd1c82c297b4a1108","187.188.73.75","Mozilla/5.0 (Macintosh; Intel Mac OS X 10_15_7) AppleWebKit/537.36 (KHTML, like Gecko) Chrome/107.0.0.0 Safari/537.36","Macintosh","Chrome","107.0.0.0","OS X","10_15_7","[0]","","11","4",""
"4472","You drop a bowling ball on a mirror <br> T&uacute tiras una bola de boliche a un espejo","{""Q0"":4}","trial","18785","survey-likert","35","400428","0.0-5.0-0.24","23","1","2022-11-29 21:24:51","2df368f4e41f066fd1c82c297b4a1108","187.188.73.75","Mozilla/5.0 (Macintosh; Intel Mac OS X 10_15_7) AppleWebKit/537.36 (KHTML, like Gecko) Chrome/107.0.0.0 Safari/537.36","Macintosh","Chrome","107.0.0.0","OS X","10_15_7","[0]","","15","4",""
"22018","You drop a bowling ball on a cracker <br> T&uacute tiras una bola de boliche a una galleta","{""Q0"":3}","trial","18785","survey-likert","36","422454","0.0-5.0-0.25","23","1","2022-11-29 21:24:51","2df368f4e41f066fd1c82c297b4a1108","187.188.73.75","Mozilla/5.0 (Macintosh; Intel Mac OS X 10_15_7) AppleWebKit/537.36 (KHTML, like Gecko) Chrome/107.0.0.0 Safari/537.36","Macintosh","Chrome","107.0.0.0","OS X","10_15_7","[0]","","4","3",""
"5672","You see how a man is playing with a cat <br> T&uacute ves como un hombre est&aacute jugando con un gato","{""Q0"":4}","trial","18785","survey-likert","37","428132","0.0-5.0-0.26","23","1","2022-11-29 21:24:51","2df368f4e41f066fd1c82c297b4a1108","187.188.73.75","Mozilla/5.0 (Macintosh; Intel Mac OS X 10_15_7) AppleWebKit/537.36 (KHTML, like Gecko) Chrome/107.0.0.0 Safari/537.36","Macintosh","Chrome","107.0.0.0","OS X","10_15_7","[0]","","67","4",""
"5541","You see how a photographer is taking a photo of a lion <br> T&uacute ves como un fot&oacutegrafo est&aacute tomando una foto de un le&oacuten","{""Q0"":4}","trial","18785","survey-likert","38","433681","0.0-5.0-0.27","23","1","2022-11-29 21:24:51","2df368f4e41f066fd1c82c297b4a1108","187.188.73.75","Mozilla/5.0 (Macintosh; Intel Mac OS X 10_15_7) AppleWebKit/537.36 (KHTML, like Gecko) Chrome/107.0.0.0 Safari/537.36","Macintosh","Chrome","107.0.0.0","OS X","10_15_7","[0]","","72","4",""
"9205","You see how an astronaut is putting on a space suit <br> T&uacute ves como un astronauta se est&aacute poniendo su traje espacial","{""Q0"":4}","trial","18785","survey-likert","39","442892","0.0-5.0-0.28","23","1","2022-11-29 21:24:51","2df368f4e41f066fd1c82c297b4a1108","187.188.73.75","Mozilla/5.0 (Macintosh; Intel Mac OS X 10_15_7) AppleWebKit/537.36 (KHTML, like Gecko) Chrome/107.0.0.0 Safari/537.36","Macintosh","Chrome","107.0.0.0","OS X","10_15_7","[0]","","33","4",""
"7078","You drop a ring on the newspaper <br> T&uacute tiras un anillo al peri&oacutedico","{""Q0"":4}","trial","18785","survey-likert","40","449977","0.0-5.0-0.29","23","1","2022-11-29 21:24:51","2df368f4e41f066fd1c82c297b4a1108","187.188.73.75","Mozilla/5.0 (Macintosh; Intel Mac OS X 10_15_7) AppleWebKit/537.36 (KHTML, like Gecko) Chrome/107.0.0.0 Safari/537.36","Macintosh","Chrome","107.0.0.0","OS X","10_15_7","[0]","","41","4",""
"4355","You see how a student is writing on a board <br> T&uacute ves como un estudiante est&aacute escribiendo en la pizarra","{""Q0"":4}","trial","18785","survey-likert","41","454338","0.0-5.0-0.30","23","1","2022-11-29 21:24:51","2df368f4e41f066fd1c82c297b4a1108","187.188.73.75","Mozilla/5.0 (Macintosh; Intel Mac OS X 10_15_7) AppleWebKit/537.36 (KHTML, like Gecko) Chrome/107.0.0.0 Safari/537.36","Macintosh","Chrome","107.0.0.0","OS X","10_15_7","[0]","","50","4",""
"4503","You drop a bowling ball on an egg <br> T&uacute tiras una bola de boliche a un huevo","{""Q0"":4}","trial","18785","survey-likert","42","458848","0.0-5.0-0.31","23","1","2022-11-29 21:24:51","2df368f4e41f066fd1c82c297b4a1108","187.188.73.75","Mozilla/5.0 (Macintosh; Intel Mac OS X 10_15_7) AppleWebKit/537.36 (KHTML, like Gecko) Chrome/107.0.0.0 Safari/537.36","Macintosh","Chrome","107.0.0.0","OS X","10_15_7","[0]","","6","4",""
"4591","You drop a remote on the rug <br> T&uacute tiras un control remoto a la alfombra","{""Q0"":4}","trial","18785","survey-likert","43","463446","0.0-5.0-0.32","23","1","2022-11-29 21:24:51","2df368f4e41f066fd1c82c297b4a1108","187.188.73.75","Mozilla/5.0 (Macintosh; Intel Mac OS X 10_15_7) AppleWebKit/537.36 (KHTML, like Gecko) Chrome/107.0.0.0 Safari/537.36","Macintosh","Chrome","107.0.0.0","OS X","10_15_7","[0]","","39","4",""
"4873","You see how a doctor is taking a stethoscope <br> T&uacute ves como un doctor est&aacute agarrando un estetoscopio","{""Q0"":4}","trial","18785","survey-likert","44","468325","0.0-5.0-0.33","23","1","2022-11-29 21:24:51","2df368f4e41f066fd1c82c297b4a1108","187.188.73.75","Mozilla/5.0 (Macintosh; Intel Mac OS X 10_15_7) AppleWebKit/537.36 (KHTML, like Gecko) Chrome/107.0.0.0 Safari/537.36","Macintosh","Chrome","107.0.0.0","OS X","10_15_7","[0]","","49","4",""
"37493","You drop a bowling ball on a hat <br> T&uacute tiras una bola de boliche a una gorra","{""Q0"":4}","trial","18785","survey-likert","45","505825","0.0-5.0-0.34","23","1","2022-11-29 21:24:51","2df368f4e41f066fd1c82c297b4a1108","187.188.73.75","Mozilla/5.0 (Macintosh; Intel Mac OS X 10_15_7) AppleWebKit/537.36 (KHTML, like Gecko) Chrome/107.0.0.0 Safari/537.36","Macintosh","Chrome","107.0.0.0","OS X","10_15_7","[0]","","10","4",""
"12859","You see how a president is writing in the notebook <br> T&uacute ves como un presidente est&aacute escribiendo en la libreta","{""Q0"":4}","trial","18785","survey-likert","46","518691","0.0-5.0-0.35","23","1","2022-11-29 21:24:51","2df368f4e41f066fd1c82c297b4a1108","187.188.73.75","Mozilla/5.0 (Macintosh; Intel Mac OS X 10_15_7) AppleWebKit/537.36 (KHTML, like Gecko) Chrome/107.0.0.0 Safari/537.36","Macintosh","Chrome","107.0.0.0","OS X","10_15_7","[0]","","63","4",""
"4692","You drop a keyboard on the bed <br> T&uacute tiras un teclado a la cama","{""Q0"":4}","trial","18785","survey-likert","47","523387","0.0-5.0-0.36","23","1","2022-11-29 21:24:51","2df368f4e41f066fd1c82c297b4a1108","187.188.73.75","Mozilla/5.0 (Macintosh; Intel Mac OS X 10_15_7) AppleWebKit/537.36 (KHTML, like Gecko) Chrome/107.0.0.0 Safari/537.36","Macintosh","Chrome","107.0.0.0","OS X","10_15_7","[0]","","36","4",""
"15652","You drop a bowling ball on a piece of cake <br> T&uacute tiras una bola de boliche a un trozo de pastel","{""Q0"":4}","trial","18785","survey-likert","48","539046","0.0-5.0-0.37","23","1","2022-11-29 21:24:51","2df368f4e41f066fd1c82c297b4a1108","187.188.73.75","Mozilla/5.0 (Macintosh; Intel Mac OS X 10_15_7) AppleWebKit/537.36 (KHTML, like Gecko) Chrome/107.0.0.0 Safari/537.36","Macintosh","Chrome","107.0.0.0","OS X","10_15_7","[0]","","2","4",""
"9624","You drop a cushion on the magazine <br> T&uacute tiras un coj&iacuten a la revista","{""Q0"":4}","trial","18785","survey-likert","49","548674","0.0-5.0-0.38","23","1","2022-11-29 21:24:51","2df368f4e41f066fd1c82c297b4a1108","187.188.73.75","Mozilla/5.0 (Macintosh; Intel Mac OS X 10_15_7) AppleWebKit/537.36 (KHTML, like Gecko) Chrome/107.0.0.0 Safari/537.36","Macintosh","Chrome","107.0.0.0","OS X","10_15_7","[0]","","38","4",""
"8499","You see how a cook is taking a knife <br> T&uacute ves como un cocinero est&aacute agarrando un cuchillo","{""Q0"":4}","trial","18785","survey-likert","50","557180","0.0-5.0-0.39","23","1","2022-11-29 21:24:51","2df368f4e41f066fd1c82c297b4a1108","187.188.73.75","Mozilla/5.0 (Macintosh; Intel Mac OS X 10_15_7) AppleWebKit/537.36 (KHTML, like Gecko) Chrome/107.0.0.0 Safari/537.36","Macintosh","Chrome","107.0.0.0","OS X","10_15_7","[0]","","71","4",""
"11722","You drop a bowling ball on a rice cake <br> T&uacute tiras una bola de boliche a una tortita de arroz","{""Q0"":1}","trial","18785","survey-likert","51","568908","0.0-5.0-0.40","23","1","2022-11-29 21:24:51","2df368f4e41f066fd1c82c297b4a1108","187.188.73.75","Mozilla/5.0 (Macintosh; Intel Mac OS X 10_15_7) AppleWebKit/537.36 (KHTML, like Gecko) Chrome/107.0.0.0 Safari/537.36","Macintosh","Chrome","107.0.0.0","OS X","10_15_7","[0]","","18","1",""
"26933","You drop a bowling ball on a rice cake <br> T&uacute tiras una bola de boliche a una tortita de arroz","{""Q0"":""debería usar la palabra \""pastel\"" en vez de \""tortilla\""""}","low_rate","18785","survey-text","52","595848","0.0-5.0-1.40-0.40","23","1","2022-11-29 21:24:51","2df368f4e41f066fd1c82c297b4a1108","187.188.73.75","Mozilla/5.0 (Macintosh; Intel Mac OS X 10_15_7) AppleWebKit/537.36 (KHTML, like Gecko) Chrome/107.0.0.0 Safari/537.36","Macintosh","Chrome","107.0.0.0","OS X","10_15_7","","","18","",""
"4560","You drop a bowling ball on glasses <br> T&uacute tiras una bola de boliche a unas gafas","{""Q0"":4}","trial","18785","survey-likert","53","600410","0.0-5.0-0.41","23","1","2022-11-29 21:24:51","2df368f4e41f066fd1c82c297b4a1108","187.188.73.75","Mozilla/5.0 (Macintosh; Intel Mac OS X 10_15_7) AppleWebKit/537.36 (KHTML, like Gecko) Chrome/107.0.0.0 Safari/537.36","Macintosh","Chrome","107.0.0.0","OS X","10_15_7","[0]","","9","4",""
"6376","You see how a parrot is eating an apple <br> T&uacute ves como un loro est&aacute comiendo una manzana","{""Q0"":4}","trial","18785","survey-likert","54","606793","0.0-5.0-0.42","23","1","2022-11-29 21:24:51","2df368f4e41f066fd1c82c297b4a1108","187.188.73.75","Mozilla/5.0 (Macintosh; Intel Mac OS X 10_15_7) AppleWebKit/537.36 (KHTML, like Gecko) Chrome/107.0.0.0 Safari/537.36","Macintosh","Chrome","107.0.0.0","OS X","10_15_7","[0]","","58","4",""
"4662","You drop a bowling ball on a porcelain figure <br> T&uacute tiras una bola de boliche a una figura de porcelana","{""Q0"":4}","trial","18785","survey-likert","55","611459","0.0-5.0-0.43","23","1","2022-11-29 21:24:51","2df368f4e41f066fd1c82c297b4a1108","187.188.73.75","Mozilla/5.0 (Macintosh; Intel Mac OS X 10_15_7) AppleWebKit/537.36 (KHTML, like Gecko) Chrome/107.0.0.0 Safari/537.36","Macintosh","Chrome","107.0.0.0","OS X","10_15_7","[0]","","1","4",""
"8097","You see how a cat is drinking water from a bowl <br> T&uacute ves como un gato est&aacute bebiendo agua de un cuenco","{""Q0"":4}","trial","18785","survey-likert","56","619564","0.0-5.0-0.44","23","1","2022-11-29 21:24:51","2df368f4e41f066fd1c82c297b4a1108","187.188.73.75","Mozilla/5.0 (Macintosh; Intel Mac OS X 10_15_7) AppleWebKit/537.36 (KHTML, like Gecko) Chrome/107.0.0.0 Safari/537.36","Macintosh","Chrome","107.0.0.0","OS X","10_15_7","[0]","","28","4",""
"8566","You drop a bowling ball on a light bulb <br> T&uacute tiras una bola de boliche a una bombilla","{""Q0"":4}","trial","18785","survey-likert","57","628137","0.0-5.0-0.45","23","1","2022-11-29 21:24:51","2df368f4e41f066fd1c82c297b4a1108","187.188.73.75","Mozilla/5.0 (Macintosh; Intel Mac OS X 10_15_7) AppleWebKit/537.36 (KHTML, like Gecko) Chrome/107.0.0.0 Safari/537.36","Macintosh","Chrome","107.0.0.0","OS X","10_15_7","[0]","","14","4",""
"12660","You see how a man is shaving his beard <br> T&uacute ves como un hombre se est&aacute afeitando la barba","{""Q0"":4}","trial","18785","survey-likert","58","640804","0.0-5.0-0.46","23","1","2022-11-29 21:24:51","2df368f4e41f066fd1c82c297b4a1108","187.188.73.75","Mozilla/5.0 (Macintosh; Intel Mac OS X 10_15_7) AppleWebKit/537.36 (KHTML, like Gecko) Chrome/107.0.0.0 Safari/537.36","Macintosh","Chrome","107.0.0.0","OS X","10_15_7","[0]","","43","4",""
"6845","You see how a postman is driving a car <br> T&uacute ves como un cartero est&aacute conduciendo un coche","{""Q0"":4}","trial","18785","survey-likert","59","647657","0.0-5.0-0.47","23","1","2022-11-29 21:24:51","2df368f4e41f066fd1c82c297b4a1108","187.188.73.75","Mozilla/5.0 (Macintosh; Intel Mac OS X 10_15_7) AppleWebKit/537.36 (KHTML, like Gecko) Chrome/107.0.0.0 Safari/537.36","Macintosh","Chrome","107.0.0.0","OS X","10_15_7","[0]","","32","4",""
"4387","You drop a bowling ball on a tile <br> T&uacute tiras una bola de boliche a una baldosa","{""Q0"":4}","trial","18785","survey-likert","60","652051","0.0-5.0-0.48","23","1","2022-11-29 21:24:51","2df368f4e41f066fd1c82c297b4a1108","187.188.73.75","Mozilla/5.0 (Macintosh; Intel Mac OS X 10_15_7) AppleWebKit/537.36 (KHTML, like Gecko) Chrome/107.0.0.0 Safari/537.36","Macintosh","Chrome","107.0.0.0","OS X","10_15_7","[0]","","22","4",""
"5291","You see how an elephant is eating a watermelon <br> T&uacute ves como un elefante est&aacute comiendo una sand&iacutea","{""Q0"":4}","trial","18785","survey-likert","61","657349","0.0-5.0-0.49","23","1","2022-11-29 21:24:51","2df368f4e41f066fd1c82c297b4a1108","187.188.73.75","Mozilla/5.0 (Macintosh; Intel Mac OS X 10_15_7) AppleWebKit/537.36 (KHTML, like Gecko) Chrome/107.0.0.0 Safari/537.36","Macintosh","Chrome","107.0.0.0","OS X","10_15_7","[0]","","31","4",""
"5789","You see how a horse is chewing hay <br> T&uacute ves como un caballo est&aacute masticando el heno","{""Q0"":4}","trial","18785","survey-likert","62","663144","0.0-5.0-0.50","23","1","2022-11-29 21:24:51","2df368f4e41f066fd1c82c297b4a1108","187.188.73.75","Mozilla/5.0 (Macintosh; Intel Mac OS X 10_15_7) AppleWebKit/537.36 (KHTML, like Gecko) Chrome/107.0.0.0 Safari/537.36","Macintosh","Chrome","107.0.0.0","OS X","10_15_7","[0]","","55","4",""
"7651","You see how a police officer is talking on the phone <br> T&uacute ves como un polic&iacutea est&aacute hablando por el tel&eacutefono","{""Q0"":4}","trial","18785","survey-likert","63","670801","0.0-5.0-0.51","23","1","2022-11-29 21:24:51","2df368f4e41f066fd1c82c297b4a1108","187.188.73.75","Mozilla/5.0 (Macintosh; Intel Mac OS X 10_15_7) AppleWebKit/537.36 (KHTML, like Gecko) Chrome/107.0.0.0 Safari/537.36","Macintosh","Chrome","107.0.0.0","OS X","10_15_7","[0]","","62","4",""
"3868","You drop a bowling ball on a tomato <br> T&uacute tiras una bola de boliche a un tomate","{""Q0"":4}","trial","18785","survey-likert","64","674676","0.0-5.0-0.52","23","1","2022-11-29 21:24:51","2df368f4e41f066fd1c82c297b4a1108","187.188.73.75","Mozilla/5.0 (Macintosh; Intel Mac OS X 10_15_7) AppleWebKit/537.36 (KHTML, like Gecko) Chrome/107.0.0.0 Safari/537.36","Macintosh","Chrome","107.0.0.0","OS X","10_15_7","[0]","","23","4",""
"6145","You see how a musician is playing a guitar <br> T&uacute ves como un m&uacutesico est&aacute tocando la guitarra","{""Q0"":4}","trial","18785","survey-likert","65","680828","0.0-5.0-0.53","23","1","2022-11-29 21:24:51","2df368f4e41f066fd1c82c297b4a1108","187.188.73.75","Mozilla/5.0 (Macintosh; Intel Mac OS X 10_15_7) AppleWebKit/537.36 (KHTML, like Gecko) Chrome/107.0.0.0 Safari/537.36","Macintosh","Chrome","107.0.0.0","OS X","10_15_7","[0]","","27","4",""
"4252","You see how a giraffe is playing with a zebra <br> T&uacute ves como una jirafa est&aacute jugando con una cebra","{""Q0"":4}","trial","18785","survey-likert","66","685087","0.0-5.0-0.54","23","1","2022-11-29 21:24:51","2df368f4e41f066fd1c82c297b4a1108","187.188.73.75","Mozilla/5.0 (Macintosh; Intel Mac OS X 10_15_7) AppleWebKit/537.36 (KHTML, like Gecko) Chrome/107.0.0.0 Safari/537.36","Macintosh","Chrome","107.0.0.0","OS X","10_15_7","[0]","","65","4",""
"3383","You drop a fork on the plate <br> T&uacute tiras un tenedor al plato","{""Q0"":4}","trial","18785","survey-likert","67","688479","0.0-5.0-0.55","23","1","2022-11-29 21:24:51","2df368f4e41f066fd1c82c297b4a1108","187.188.73.75","Mozilla/5.0 (Macintosh; Intel Mac OS X 10_15_7) AppleWebKit/537.36 (KHTML, like Gecko) Chrome/107.0.0.0 Safari/537.36","Macintosh","Chrome","107.0.0.0","OS X","10_15_7","[0]","","26","4",""
"4489","You see how an actress is taking a microphone <br> T&uacute ves como una actriz est&aacute agarrando el micr&oacutefono","{""Q0"":4}","trial","18785","survey-likert","68","692975","0.0-5.0-0.56","23","1","2022-11-29 21:24:51","2df368f4e41f066fd1c82c297b4a1108","187.188.73.75","Mozilla/5.0 (Macintosh; Intel Mac OS X 10_15_7) AppleWebKit/537.36 (KHTML, like Gecko) Chrome/107.0.0.0 Safari/537.36","Macintosh","Chrome","107.0.0.0","OS X","10_15_7","[0]","","51","4",""
"4287","You see how a kitten is playing in the sandbox <br> T&uacute ves como un gatito est&aacute jugando en la caja de arena","{""Q0"":4}","trial","18785","survey-likert","69","697270","0.0-5.0-0.57","23","1","2022-11-29 21:24:51","2df368f4e41f066fd1c82c297b4a1108","187.188.73.75","Mozilla/5.0 (Macintosh; Intel Mac OS X 10_15_7) AppleWebKit/537.36 (KHTML, like Gecko) Chrome/107.0.0.0 Safari/537.36","Macintosh","Chrome","107.0.0.0","OS X","10_15_7","[0]","","52","4",""
"4003","You see how a man is boiling potatoes <br> T&uacute ves a un hombre est&aacute hirviendo papas","{""Q0"":4}","trial","18785","survey-likert","70","701280","0.0-5.0-0.58","23","1","2022-11-29 21:24:51","2df368f4e41f066fd1c82c297b4a1108","187.188.73.75","Mozilla/5.0 (Macintosh; Intel Mac OS X 10_15_7) AppleWebKit/537.36 (KHTML, like Gecko) Chrome/107.0.0.0 Safari/537.36","Macintosh","Chrome","107.0.0.0","OS X","10_15_7","[0]","","46","4",""
"7379","You drop a bowling ball on a chocolate muffin <br> T&uacute tiras una bola de boliche a una magdalena de chocolate","{""Q0"":4}","trial","18785","survey-likert","71","708669","0.0-5.0-0.59","23","1","2022-11-29 21:24:51","2df368f4e41f066fd1c82c297b4a1108","187.188.73.75","Mozilla/5.0 (Macintosh; Intel Mac OS X 10_15_7) AppleWebKit/537.36 (KHTML, like Gecko) Chrome/107.0.0.0 Safari/537.36","Macintosh","Chrome","107.0.0.0","OS X","10_15_7","[0]","","16","4",""
"4405","You drop a towel on the TV <br> T&uacute tiras una toalla a la televisi&oacuten","{""Q0"":4}","trial","18785","survey-likert","72","713082","0.0-5.0-0.60","23","1","2022-11-29 21:24:51","2df368f4e41f066fd1c82c297b4a1108","187.188.73.75","Mozilla/5.0 (Macintosh; Intel Mac OS X 10_15_7) AppleWebKit/537.36 (KHTML, like Gecko) Chrome/107.0.0.0 Safari/537.36","Macintosh","Chrome","107.0.0.0","OS X","10_15_7","[0]","","53","4",""
"3184","You drop a pencil on the shoe <br> T&uacute tiras un l&aacutepiz al zapato","{""Q0"":4}","trial","18785","survey-likert","73","716273","0.0-5.0-0.61","23","1","2022-11-29 21:24:51","2df368f4e41f066fd1c82c297b4a1108","187.188.73.75","Mozilla/5.0 (Macintosh; Intel Mac OS X 10_15_7) AppleWebKit/537.36 (KHTML, like Gecko) Chrome/107.0.0.0 Safari/537.36","Macintosh","Chrome","107.0.0.0","OS X","10_15_7","[0]","","40","4",""
"4620","You see how a thief is stealing a wallet <br> T&uacute ves como un ladr&oacuten est&aacute robando una billetera","{""Q0"":4}","trial","18785","survey-likert","74","720902","0.0-5.0-0.62","23","1","2022-11-29 21:24:51","2df368f4e41f066fd1c82c297b4a1108","187.188.73.75","Mozilla/5.0 (Macintosh; Intel Mac OS X 10_15_7) AppleWebKit/537.36 (KHTML, like Gecko) Chrome/107.0.0.0 Safari/537.36","Macintosh","Chrome","107.0.0.0","OS X","10_15_7","[0]","","68","4",""
"6325","You drop a bowling ball on an iPhone <br> T&uacute tiras una bola de boliche a un iPhone","{""Q0"":4}","trial","18785","survey-likert","75","727233","0.0-5.0-0.63","23","1","2022-11-29 21:24:51","2df368f4e41f066fd1c82c297b4a1108","187.188.73.75","Mozilla/5.0 (Macintosh; Intel Mac OS X 10_15_7) AppleWebKit/537.36 (KHTML, like Gecko) Chrome/107.0.0.0 Safari/537.36","Macintosh","Chrome","107.0.0.0","OS X","10_15_7","[0]","","13","4",""
"12359","You drop a bowling ball on a piece of sushi <br> T&uacute tiras una bola de boliche a un pedazo de sushi","{""Q0"":4}","trial","18785","survey-likert","76","739599","0.0-5.0-0.64","23","1","2022-11-29 21:24:51","2df368f4e41f066fd1c82c297b4a1108","187.188.73.75","Mozilla/5.0 (Macintosh; Intel Mac OS X 10_15_7) AppleWebKit/537.36 (KHTML, like Gecko) Chrome/107.0.0.0 Safari/537.36","Macintosh","Chrome","107.0.0.0","OS X","10_15_7","[0]","","21","4",""
"6815","You see how a donkey is drinking water <br> T&uacute ves como un burro est&aacute bebiendo agua","{""Q0"":4}","trial","18785","survey-likert","77","746421","0.0-5.0-0.65","23","1","2022-11-29 21:24:51","2df368f4e41f066fd1c82c297b4a1108","187.188.73.75","Mozilla/5.0 (Macintosh; Intel Mac OS X 10_15_7) AppleWebKit/537.36 (KHTML, like Gecko) Chrome/107.0.0.0 Safari/537.36","Macintosh","Chrome","107.0.0.0","OS X","10_15_7","[0]","","45","4",""
"11302","You see how a woman is taking money out of a wallet <br> T&uacute ves como una mujer est&aacute sacando dinero de su billetera","{""Q0"":1}","trial","18785","survey-likert","78","757731","0.0-5.0-0.66","23","1","2022-11-29 21:24:51","2df368f4e41f066fd1c82c297b4a1108","187.188.73.75","Mozilla/5.0 (Macintosh; Intel Mac OS X 10_15_7) AppleWebKit/537.36 (KHTML, like Gecko) Chrome/107.0.0.0 Safari/537.36","Macintosh","Chrome","107.0.0.0","OS X","10_15_7","[0]","","44","1",""
"10255","You see how a woman is taking money out of a wallet <br> T&uacute ves como una mujer est&aacute sacando dinero de su billetera","{""Q0"":""\""de una billetera\""""}","low_rate","18785","survey-text","79","767995","0.0-5.0-1.66-0.66","23","1","2022-11-29 21:24:51","2df368f4e41f066fd1c82c297b4a1108","187.188.73.75","Mozilla/5.0 (Macintosh; Intel Mac OS X 10_15_7) AppleWebKit/537.36 (KHTML, like Gecko) Chrome/107.0.0.0 Safari/537.36","Macintosh","Chrome","107.0.0.0","OS X","10_15_7","","","44","",""
"4424","You see how a panda is resting on a tree <br> T&uacute ves como un panda est&aacute descansando en un &aacuterbol","{""Q0"":4}","trial","18785","survey-likert","80","772424","0.0-5.0-0.67","23","1","2022-11-29 21:24:51","2df368f4e41f066fd1c82c297b4a1108","187.188.73.75","Mozilla/5.0 (Macintosh; Intel Mac OS X 10_15_7) AppleWebKit/537.36 (KHTML, like Gecko) Chrome/107.0.0.0 Safari/537.36","Macintosh","Chrome","107.0.0.0","OS X","10_15_7","[0]","","57","4",""
"6692","You see how a nurse is taking a syringe <br> T&uacute ves como una enfermera est&aacute agarrando una jeringuilla","{""Q0"":4}","trial","18785","survey-likert","81","779124","0.0-5.0-0.68","23","1","2022-11-29 21:24:51","2df368f4e41f066fd1c82c297b4a1108","187.188.73.75","Mozilla/5.0 (Macintosh; Intel Mac OS X 10_15_7) AppleWebKit/537.36 (KHTML, like Gecko) Chrome/107.0.0.0 Safari/537.36","Macintosh","Chrome","107.0.0.0","OS X","10_15_7","[0]","","48","4",""
"5691","You see how a butterfly is sitting on a flower <br> T&uacute ves como una mariposa est&aacute reposando en una flor","{""Q0"":4}","trial","18785","survey-likert","82","784823","0.0-5.0-0.69","23","1","2022-11-29 21:24:51","2df368f4e41f066fd1c82c297b4a1108","187.188.73.75","Mozilla/5.0 (Macintosh; Intel Mac OS X 10_15_7) AppleWebKit/537.36 (KHTML, like Gecko) Chrome/107.0.0.0 Safari/537.36","Macintosh","Chrome","107.0.0.0","OS X","10_15_7","[0]","","59","4",""
"3017","You drop a bowling ball on an iPAD <br> T&uacute tiras una bola de boliche a un iPad","{""Q0"":4}","trial","18785","survey-likert","83","787848","0.0-5.0-0.70","23","1","2022-11-29 21:24:51","2df368f4e41f066fd1c82c297b4a1108","187.188.73.75","Mozilla/5.0 (Macintosh; Intel Mac OS X 10_15_7) AppleWebKit/537.36 (KHTML, like Gecko) Chrome/107.0.0.0 Safari/537.36","Macintosh","Chrome","107.0.0.0","OS X","10_15_7","[0]","","12","4",""
"5386","You drop a bowling ball on an egg flan <br> T&uacute tiras una bola de boliche a un flan","{""Q0"":4}","trial","18785","survey-likert","84","793242","0.0-5.0-0.71","23","1","2022-11-29 21:24:51","2df368f4e41f066fd1c82c297b4a1108","187.188.73.75","Mozilla/5.0 (Macintosh; Intel Mac OS X 10_15_7) AppleWebKit/537.36 (KHTML, like Gecko) Chrome/107.0.0.0 Safari/537.36","Macintosh","Chrome","107.0.0.0","OS X","10_15_7","[0]","","7","4",""
"5765","
    <p style=""font-size:20px;""> You have completed the experiment portion! </p>
    <p style=""font-size:20px;""> Before you are done, we would like you to answer some basic demographic questions. </p>
    <p style=""font-size:20px;""> Note that your answers to these questions will not affect your compensation/credit. </p>
    <p style=""font-size:20px;""> Click the button below to continue.</p>
    ","0","demo","18785","html-button-response","85","799013","0.0-6.0","23","1","2022-11-29 21:24:51","2df368f4e41f066fd1c82c297b4a1108","187.188.73.75","Mozilla/5.0 (Macintosh; Intel Mac OS X 10_15_7) AppleWebKit/537.36 (KHTML, like Gecko) Chrome/107.0.0.0 Safari/537.36","Macintosh","Chrome","107.0.0.0","OS X","10_15_7","","","","",""
"40431","","{""Age"":""21"",""Gender"":""Male"",""Education"":""17""}","demo","18785","survey-text","86","839450","0.0-7.0-0.0","23","1","2022-11-29 21:24:51","2df368f4e41f066fd1c82c297b4a1108","187.188.73.75","Mozilla/5.0 (Macintosh; Intel Mac OS X 10_15_7) AppleWebKit/537.36 (KHTML, like Gecko) Chrome/107.0.0.0 Safari/537.36","Macintosh","Chrome","107.0.0.0","OS X","10_15_7","","","","",""
"10905","","{""Race"":[""Other""]}","demo","18785","survey-multi-select","87","850367","0.0-7.0-1.0","23","1","2022-11-29 21:24:51","2df368f4e41f066fd1c82c297b4a1108","187.188.73.75","Mozilla/5.0 (Macintosh; Intel Mac OS X 10_15_7) AppleWebKit/537.36 (KHTML, like Gecko) Chrome/107.0.0.0 Safari/537.36","Macintosh","Chrome","107.0.0.0","OS X","10_15_7","[0]","","","",""
"10497","","{""Latino"":""Yes"",""Alert"":""Morning""}","demo","18785","survey-multi-choice","88","860873","0.0-7.0-2.0","23","1","2022-11-29 21:24:51","2df368f4e41f066fd1c82c297b4a1108","187.188.73.75","Mozilla/5.0 (Macintosh; Intel Mac OS X 10_15_7) AppleWebKit/537.36 (KHTML, like Gecko) Chrome/107.0.0.0 Safari/537.36","Macintosh","Chrome","107.0.0.0","OS X","10_15_7","[0,1]","","","",""
"9339","","{""Q0"":""none""}","demo","18785","survey-text","89","870218","0.0-7.0-3.0","23","1","2022-11-29 21:24:51","2df368f4e41f066fd1c82c297b4a1108","187.188.73.75","Mozilla/5.0 (Macintosh; Intel Mac OS X 10_15_7) AppleWebKit/537.36 (KHTML, like Gecko) Chrome/107.0.0.0 Safari/537.36","Macintosh","Chrome","107.0.0.0","OS X","10_15_7","","","","",""
"29223","<p>Thank you for participating! </p><strong>Your completion code is: CXEJB7NH. Please copy-paste this code and submit it on Prolific.</strong><p>Click <a href=""https://drive.google.com/file/d/1c70cdHFlc0AaR6RujLWLJwWkv1RbHQJY/view?usp=sharing"" target=""_blank"" rel=""noopener noreferrer"">here</a> to access the debriefing form and know more about our research. <p> Please click the button below to finish the experiment and save your data.</p> <p> IMPORTANT: Please <strong>do not leave this page </strong> without clicking the button below.</p> <p> You may close the tab/window after you click the button below.","0","","","html-button-response","90","899447","0.0-8.0","23","1","2022-11-29 21:24:51","2df368f4e41f066fd1c82c297b4a1108","187.188.73.75","Mozilla/5.0 (Macintosh; Intel Mac OS X 10_15_7) AppleWebKit/537.36 (KHTML, like Gecko) Chrome/107.0.0.0 Safari/537.36","Macintosh","Chrome","107.0.0.0","OS X","10_15_7","","","","",""
