"rt","stimulus","response","typeoftrial","subject","trial_type","trial_index","time_elapsed","internal_node_id","run_id","condition","recorded_at","source_code_version","ip","user_agent","device","browser","browser_version","platform","platform_version","question_order","practice_rating","sentence_num","rating","Experiment"
"4045","
        <p style=""font-size:20px;""> Welcome! Thank you for your interest in our study. </p>
        <p style=""font-size:20px;""> This study is being conducted by researchers at Bowdoin College.</p>
        <p style=""font-size:20px;""> In this experiment, you will be asked to rate the accuracy of English and Spanish translations.</p>
        <p style=""font-size:20px;""> The entire experiment should not last more than 20 minutes. You will be paid $3 USD for your participation. </p>
        <p style=""font-size:20px;""> Please click <a href = ""https://drive.google.com/file/d/1L92a02eEKCpaAEipmqDcBCDR7rsarqFE/view?usp=sharing"" target = ""_blank"">here</a> to read the full consent form. </p>
        <p style=""font-size:20px;""> If you agree to participate, please click the button below to continue to experiment instructions.</p>
        ","0","consent","48134","html-button-response","0","4046","0.0-0.0","55","1","2022-11-29 21:26:12","2df368f4e41f066fd1c82c297b4a1108","46.222.83.165","Mozilla/5.0 (Windows NT 10.0; Win64; x64) AppleWebKit/537.36 (KHTML, like Gecko) Chrome/107.0.0.0 Safari/537.36","WebKit","Chrome","107.0.0.0","Windows","10.0","","","","",""
"4063","","{""ID"":""617305abc8cde4cf0e08255b""}","ID","48134","survey-text","1","8113","0.0-1.0","55","1","2022-11-29 21:26:12","2df368f4e41f066fd1c82c297b4a1108","46.222.83.165","Mozilla/5.0 (Windows NT 10.0; Win64; x64) AppleWebKit/537.36 (KHTML, like Gecko) Chrome/107.0.0.0 Safari/537.36","WebKit","Chrome","107.0.0.0","Windows","10.0","","","","",""
"27254","
        <p style=""font-size:20px;""> You are about to begin the practice test. </p>
        <p style=""font-size:20px;""> On each trial, you will see a sentence in English and its corresponding Spanish translation. </p>
        <p style=""font-size:20px;""> You will rate the accuracy of the translation on a scale from ""Not at all accurate"" to ""Very accurate."" </p>
        <p style=""font-size:20px;""> If you rate the translation as ""Somewhat innaccurate"" or ""Not at all accurate,"" you will be asked to provide your own translation or a reason why the translation is inaccurate. </p>
        <p style=""font-size:20px;""> Click the button below to continue to the practice session.</p>","0","instructions","48134","html-button-response","2","35368","0.0-2.0","55","1","2022-11-29 21:26:12","2df368f4e41f066fd1c82c297b4a1108","46.222.83.165","Mozilla/5.0 (Windows NT 10.0; Win64; x64) AppleWebKit/537.36 (KHTML, like Gecko) Chrome/107.0.0.0 Safari/537.36","WebKit","Chrome","107.0.0.0","Windows","10.0","","","","",""
"26875","You see how an artist is running <br> T&uacute ves como un artista est&aacute corriendo","{""Q0"":4}","practice","48134","survey-likert","3","62246","0.0-3.0-0.0","55","1","2022-11-29 21:26:12","2df368f4e41f066fd1c82c297b4a1108","46.222.83.165","Mozilla/5.0 (Windows NT 10.0; Win64; x64) AppleWebKit/537.36 (KHTML, like Gecko) Chrome/107.0.0.0 Safari/537.36","WebKit","Chrome","107.0.0.0","Windows","10.0","[0]","4","","",""
"26176","You drop a rock on a phone <br> T&uacute tiras una piedra a un tel&eacutefono","{""Q0"":4}","practice","48134","survey-likert","4","88427","0.0-3.0-0.1","55","1","2022-11-29 21:26:12","2df368f4e41f066fd1c82c297b4a1108","46.222.83.165","Mozilla/5.0 (Windows NT 10.0; Win64; x64) AppleWebKit/537.36 (KHTML, like Gecko) Chrome/107.0.0.0 Safari/537.36","WebKit","Chrome","107.0.0.0","Windows","10.0","[0]","4","","",""
"51126","You see how a tiger is playing with a goose <br> T&uacute ves como un le&oacuten come una pizza","{""Q0"":0}","practice","48134","survey-likert","5","139560","0.0-3.0-0.2","55","1","2022-11-29 21:26:12","2df368f4e41f066fd1c82c297b4a1108","46.222.83.165","Mozilla/5.0 (Windows NT 10.0; Win64; x64) AppleWebKit/537.36 (KHTML, like Gecko) Chrome/107.0.0.0 Safari/537.36","WebKit","Chrome","107.0.0.0","Windows","10.0","[0]","0","","",""
"31835","You see how a tiger is playing with a goose <br> T&uacute ves como un le&oacuten come una pizza","{""Q0"":""Ves como un tigre está jugando con un ganso""}","practice_low_rate","48134","survey-text","6","171405","0.0-3.0-1.2-0.2","55","1","2022-11-29 21:26:12","2df368f4e41f066fd1c82c297b4a1108","46.222.83.165","Mozilla/5.0 (Windows NT 10.0; Win64; x64) AppleWebKit/537.36 (KHTML, like Gecko) Chrome/107.0.0.0 Safari/537.36","WebKit","Chrome","107.0.0.0","Windows","10.0","","","5","",""
"17127","You see how a teacher is drawing a picture <br> T&uacute ves como un maestro pinta una foto","{""Q0"":4}","practice","48134","survey-likert","7","188534","0.0-3.0-0.3","55","1","2022-11-29 21:26:12","2df368f4e41f066fd1c82c297b4a1108","46.222.83.165","Mozilla/5.0 (Windows NT 10.0; Win64; x64) AppleWebKit/537.36 (KHTML, like Gecko) Chrome/107.0.0.0 Safari/537.36","WebKit","Chrome","107.0.0.0","Windows","10.0","[0]","4","","",""
"16555","You see how a duck is playing with a pumpkin <br> T&uacute ves como un pato est&aacute jugando con una calabaza","{""Q0"":4}","practice","48134","survey-likert","8","205096","0.0-3.0-0.4","55","1","2022-11-29 21:26:12","2df368f4e41f066fd1c82c297b4a1108","46.222.83.165","Mozilla/5.0 (Windows NT 10.0; Win64; x64) AppleWebKit/537.36 (KHTML, like Gecko) Chrome/107.0.0.0 Safari/537.36","WebKit","Chrome","107.0.0.0","Windows","10.0","[0]","4","","",""
"53966","You drop a bowling ball on a mircrowave <br> T&uacute tiras una bola de boliche a un horno","{""Q0"":0}","practice","48134","survey-likert","9","259069","0.0-3.0-0.5","55","1","2022-11-29 21:26:12","2df368f4e41f066fd1c82c297b4a1108","46.222.83.165","Mozilla/5.0 (Windows NT 10.0; Win64; x64) AppleWebKit/537.36 (KHTML, like Gecko) Chrome/107.0.0.0 Safari/537.36","WebKit","Chrome","107.0.0.0","Windows","10.0","[0]","0","","",""
"27363","You drop a bowling ball on a mircrowave <br> T&uacute tiras una bola de boliche a un horno","{""Q0"":""Tú dejas caer una bola de bolos en un microondas""}","practice_low_rate","48134","survey-text","10","286440","0.0-3.0-1.5-0.5","55","1","2022-11-29 21:26:12","2df368f4e41f066fd1c82c297b4a1108","46.222.83.165","Mozilla/5.0 (Windows NT 10.0; Win64; x64) AppleWebKit/537.36 (KHTML, like Gecko) Chrome/107.0.0.0 Safari/537.36","WebKit","Chrome","107.0.0.0","Windows","10.0","","","6","",""
"4582","<p style=""font-size:20px;"">You have now completed the practice session! </p>
        <p style=""font-size:20px;"">You will now move on to the main experiment. </p>
        <p style=""font-size:20px;"">Please click the button below to continue. </p>","0","movetoexp","48134","html-button-response","11","291024","0.0-4.0","55","1","2022-11-29 21:26:12","2df368f4e41f066fd1c82c297b4a1108","46.222.83.165","Mozilla/5.0 (Windows NT 10.0; Win64; x64) AppleWebKit/537.36 (KHTML, like Gecko) Chrome/107.0.0.0 Safari/537.36","WebKit","Chrome","107.0.0.0","Windows","10.0","","","","",""
"18285","You see how a hairdresser is taking scissors <br> T&uacute ves como una peluquera est&aacute agarrando las tijeras","{""Q0"":4}","trial","48134","survey-likert","12","309311","0.0-5.0-0.0","55","1","2022-11-29 21:26:12","2df368f4e41f066fd1c82c297b4a1108","46.222.83.165","Mozilla/5.0 (Windows NT 10.0; Win64; x64) AppleWebKit/537.36 (KHTML, like Gecko) Chrome/107.0.0.0 Safari/537.36","WebKit","Chrome","107.0.0.0","Windows","10.0","[0]","","60","4",""
"80161","You drop a bowling ball on a hat <br> T&uacute tiras una bola de boliche a una gorra","{""Q0"":1}","trial","48134","survey-likert","13","389479","0.0-5.0-0.1","55","1","2022-11-29 21:26:12","2df368f4e41f066fd1c82c297b4a1108","46.222.83.165","Mozilla/5.0 (Windows NT 10.0; Win64; x64) AppleWebKit/537.36 (KHTML, like Gecko) Chrome/107.0.0.0 Safari/537.36","WebKit","Chrome","107.0.0.0","Windows","10.0","[0]","","10","1",""
"19327","You drop a bowling ball on a hat <br> T&uacute tiras una bola de boliche a una gorra","{""Q0"":""tú dejas caer una bola de bolos en un sombrero""}","low_rate","48134","survey-text","14","408813","0.0-5.0-1.1-0.1","55","1","2022-11-29 21:26:12","2df368f4e41f066fd1c82c297b4a1108","46.222.83.165","Mozilla/5.0 (Windows NT 10.0; Win64; x64) AppleWebKit/537.36 (KHTML, like Gecko) Chrome/107.0.0.0 Safari/537.36","WebKit","Chrome","107.0.0.0","Windows","10.0","","","10","",""
"77164","You drop a bowling ball on glasses <br> T&uacute tiras una bola de boliche a unas gafas","{""Q0"":1}","trial","48134","survey-likert","15","485979","0.0-5.0-0.2","55","1","2022-11-29 21:26:12","2df368f4e41f066fd1c82c297b4a1108","46.222.83.165","Mozilla/5.0 (Windows NT 10.0; Win64; x64) AppleWebKit/537.36 (KHTML, like Gecko) Chrome/107.0.0.0 Safari/537.36","WebKit","Chrome","107.0.0.0","Windows","10.0","[0]","","9","1",""
"15786","You drop a bowling ball on glasses <br> T&uacute tiras una bola de boliche a unas gafas","{""Q0"":""dejas caer una bola de bolos sobre unas gafas""}","low_rate","48134","survey-text","16","501773","0.0-5.0-1.2-0.2","55","1","2022-11-29 21:26:12","2df368f4e41f066fd1c82c297b4a1108","46.222.83.165","Mozilla/5.0 (Windows NT 10.0; Win64; x64) AppleWebKit/537.36 (KHTML, like Gecko) Chrome/107.0.0.0 Safari/537.36","WebKit","Chrome","107.0.0.0","Windows","10.0","","","9","",""
"6796","You see how a student is writing on a board <br> T&uacute ves como un estudiante est&aacute escribiendo en la pizarra","{""Q0"":4}","trial","48134","survey-likert","17","508572","0.0-5.0-0.3","55","1","2022-11-29 21:26:12","2df368f4e41f066fd1c82c297b4a1108","46.222.83.165","Mozilla/5.0 (Windows NT 10.0; Win64; x64) AppleWebKit/537.36 (KHTML, like Gecko) Chrome/107.0.0.0 Safari/537.36","WebKit","Chrome","107.0.0.0","Windows","10.0","[0]","","50","4",""
"29642","You drop a cushion on the magazine <br> T&uacute tiras un coj&iacuten a la revista","{""Q0"":1}","trial","48134","survey-likert","18","538221","0.0-5.0-0.4","55","1","2022-11-29 21:26:12","2df368f4e41f066fd1c82c297b4a1108","46.222.83.165","Mozilla/5.0 (Windows NT 10.0; Win64; x64) AppleWebKit/537.36 (KHTML, like Gecko) Chrome/107.0.0.0 Safari/537.36","WebKit","Chrome","107.0.0.0","Windows","10.0","[0]","","38","1",""
"11735","You drop a cushion on the magazine <br> T&uacute tiras un coj&iacuten a la revista","{""Q0"":""dejas caer un cojín en la revista""}","low_rate","48134","survey-text","19","549964","0.0-5.0-1.4-0.4","55","1","2022-11-29 21:26:12","2df368f4e41f066fd1c82c297b4a1108","46.222.83.165","Mozilla/5.0 (Windows NT 10.0; Win64; x64) AppleWebKit/537.36 (KHTML, like Gecko) Chrome/107.0.0.0 Safari/537.36","WebKit","Chrome","107.0.0.0","Windows","10.0","","","38","",""
"17035","You see how a parrot is eating an apple <br> T&uacute ves como un loro est&aacute comiendo una manzana","{""Q0"":4}","trial","48134","survey-likert","20","567001","0.0-5.0-0.5","55","1","2022-11-29 21:26:12","2df368f4e41f066fd1c82c297b4a1108","46.222.83.165","Mozilla/5.0 (Windows NT 10.0; Win64; x64) AppleWebKit/537.36 (KHTML, like Gecko) Chrome/107.0.0.0 Safari/537.36","WebKit","Chrome","107.0.0.0","Windows","10.0","[0]","","58","4",""
"32620","You drop a bowling ball on a mirror <br> T&uacute tiras una bola de boliche a un espejo","{""Q0"":3}","trial","48134","survey-likert","21","599629","0.0-5.0-0.6","55","1","2022-11-29 21:26:12","2df368f4e41f066fd1c82c297b4a1108","46.222.83.165","Mozilla/5.0 (Windows NT 10.0; Win64; x64) AppleWebKit/537.36 (KHTML, like Gecko) Chrome/107.0.0.0 Safari/537.36","WebKit","Chrome","107.0.0.0","Windows","10.0","[0]","","15","3",""
"29078","You drop a bowling ball on a tile <br> T&uacute tiras una bola de boliche a una baldosa","{""Q0"":3}","trial","48134","survey-likert","22","628715","0.0-5.0-0.7","55","1","2022-11-29 21:26:12","2df368f4e41f066fd1c82c297b4a1108","46.222.83.165","Mozilla/5.0 (Windows NT 10.0; Win64; x64) AppleWebKit/537.36 (KHTML, like Gecko) Chrome/107.0.0.0 Safari/537.36","WebKit","Chrome","107.0.0.0","Windows","10.0","[0]","","22","3",""
"59772","You drop a needle on the mouse pad <br> T&uacute tiras una aguja a la alfombrilla para el rat&oacuten","{""Q0"":1}","trial","48134","survey-likert","23","688494","0.0-5.0-0.8","55","1","2022-11-29 21:26:12","2df368f4e41f066fd1c82c297b4a1108","46.222.83.165","Mozilla/5.0 (Windows NT 10.0; Win64; x64) AppleWebKit/537.36 (KHTML, like Gecko) Chrome/107.0.0.0 Safari/537.36","WebKit","Chrome","107.0.0.0","Windows","10.0","[0]","","42","1",""
"14013","You drop a needle on the mouse pad <br> T&uacute tiras una aguja a la alfombrilla para el rat&oacuten","{""Q0"":""dejas caer una aguja en la alfombrilla del ratón""}","low_rate","48134","survey-text","24","702515","0.0-5.0-1.8-0.8","55","1","2022-11-29 21:26:12","2df368f4e41f066fd1c82c297b4a1108","46.222.83.165","Mozilla/5.0 (Windows NT 10.0; Win64; x64) AppleWebKit/537.36 (KHTML, like Gecko) Chrome/107.0.0.0 Safari/537.36","WebKit","Chrome","107.0.0.0","Windows","10.0","","","42","",""
"49190","You drop a pencil on the shoe <br> T&uacute tiras un l&aacutepiz al zapato","{""Q0"":1}","trial","48134","survey-likert","25","751709","0.0-5.0-0.9","55","1","2022-11-29 21:26:12","2df368f4e41f066fd1c82c297b4a1108","46.222.83.165","Mozilla/5.0 (Windows NT 10.0; Win64; x64) AppleWebKit/537.36 (KHTML, like Gecko) Chrome/107.0.0.0 Safari/537.36","WebKit","Chrome","107.0.0.0","Windows","10.0","[0]","","40","1",""
"11720","You drop a pencil on the shoe <br> T&uacute tiras un l&aacutepiz al zapato","{""Q0"":""dejas caer un lápiz en el zapato""}","low_rate","48134","survey-text","26","763438","0.0-5.0-1.9-0.9","55","1","2022-11-29 21:26:12","2df368f4e41f066fd1c82c297b4a1108","46.222.83.165","Mozilla/5.0 (Windows NT 10.0; Win64; x64) AppleWebKit/537.36 (KHTML, like Gecko) Chrome/107.0.0.0 Safari/537.36","WebKit","Chrome","107.0.0.0","Windows","10.0","","","40","",""
"6427","You see how a dentist is drinking a can of cola <br> T&uacute ves como un dentista est&aacute bebiendo una lata de cola","{""Q0"":4}","trial","48134","survey-likert","27","769868","0.0-5.0-0.10","55","1","2022-11-29 21:26:12","2df368f4e41f066fd1c82c297b4a1108","46.222.83.165","Mozilla/5.0 (Windows NT 10.0; Win64; x64) AppleWebKit/537.36 (KHTML, like Gecko) Chrome/107.0.0.0 Safari/537.36","WebKit","Chrome","107.0.0.0","Windows","10.0","[0]","","47","4",""
"5777","You drop a fork on the plate <br> T&uacute tiras un tenedor al plato","{""Q0"":3}","trial","48134","survey-likert","28","775652","0.0-5.0-0.11","55","1","2022-11-29 21:26:12","2df368f4e41f066fd1c82c297b4a1108","46.222.83.165","Mozilla/5.0 (Windows NT 10.0; Win64; x64) AppleWebKit/537.36 (KHTML, like Gecko) Chrome/107.0.0.0 Safari/537.36","WebKit","Chrome","107.0.0.0","Windows","10.0","[0]","","26","3",""
"10824","You drop a bowling ball on a chocolate ice-cream <br> T&uacute tiras una bola de boliche a un helado de chocolate","{""Q0"":3}","trial","48134","survey-likert","29","786484","0.0-5.0-0.12","55","1","2022-11-29 21:26:12","2df368f4e41f066fd1c82c297b4a1108","46.222.83.165","Mozilla/5.0 (Windows NT 10.0; Win64; x64) AppleWebKit/537.36 (KHTML, like Gecko) Chrome/107.0.0.0 Safari/537.36","WebKit","Chrome","107.0.0.0","Windows","10.0","[0]","","11","3",""
"23154","You drop a keyboard on the bed <br> T&uacute tiras un teclado a la cama","{""Q0"":1}","trial","48134","survey-likert","30","809644","0.0-5.0-0.13","55","1","2022-11-29 21:26:12","2df368f4e41f066fd1c82c297b4a1108","46.222.83.165","Mozilla/5.0 (Windows NT 10.0; Win64; x64) AppleWebKit/537.36 (KHTML, like Gecko) Chrome/107.0.0.0 Safari/537.36","WebKit","Chrome","107.0.0.0","Windows","10.0","[0]","","36","1",""
"10224","You drop a keyboard on the bed <br> T&uacute tiras un teclado a la cama","{""Q0"":""deja caer un teclado en la cama""}","low_rate","48134","survey-text","31","819876","0.0-5.0-1.13-0.13","55","1","2022-11-29 21:26:12","2df368f4e41f066fd1c82c297b4a1108","46.222.83.165","Mozilla/5.0 (Windows NT 10.0; Win64; x64) AppleWebKit/537.36 (KHTML, like Gecko) Chrome/107.0.0.0 Safari/537.36","WebKit","Chrome","107.0.0.0","Windows","10.0","","","36","",""
"11158","You drop a bowling ball on a ceramic plate <br> T&uacute tiras una bola de boliche a un plato de cer&aacutemica","{""Q0"":3}","trial","48134","survey-likert","32","831037","0.0-5.0-0.14","55","1","2022-11-29 21:26:12","2df368f4e41f066fd1c82c297b4a1108","46.222.83.165","Mozilla/5.0 (Windows NT 10.0; Win64; x64) AppleWebKit/537.36 (KHTML, like Gecko) Chrome/107.0.0.0 Safari/537.36","WebKit","Chrome","107.0.0.0","Windows","10.0","[0]","","19","3",""
"6256","You see how a cat is drinking water from a bowl <br> T&uacute ves como un gato est&aacute bebiendo agua de un cuenco","{""Q0"":4}","trial","48134","survey-likert","33","837301","0.0-5.0-0.15","55","1","2022-11-29 21:26:12","2df368f4e41f066fd1c82c297b4a1108","46.222.83.165","Mozilla/5.0 (Windows NT 10.0; Win64; x64) AppleWebKit/537.36 (KHTML, like Gecko) Chrome/107.0.0.0 Safari/537.36","WebKit","Chrome","107.0.0.0","Windows","10.0","[0]","","28","4",""
"6399","You see how a cook is taking a knife <br> T&uacute ves como un cocinero est&aacute agarrando un cuchillo","{""Q0"":4}","trial","48134","survey-likert","34","843708","0.0-5.0-0.16","55","1","2022-11-29 21:26:12","2df368f4e41f066fd1c82c297b4a1108","46.222.83.165","Mozilla/5.0 (Windows NT 10.0; Win64; x64) AppleWebKit/537.36 (KHTML, like Gecko) Chrome/107.0.0.0 Safari/537.36","WebKit","Chrome","107.0.0.0","Windows","10.0","[0]","","71","4",""
"9104","You drop a bowling ball on a porcelain figure <br> T&uacute tiras una bola de boliche a una figura de porcelana","{""Q0"":3}","trial","48134","survey-likert","35","852819","0.0-5.0-0.17","55","1","2022-11-29 21:26:12","2df368f4e41f066fd1c82c297b4a1108","46.222.83.165","Mozilla/5.0 (Windows NT 10.0; Win64; x64) AppleWebKit/537.36 (KHTML, like Gecko) Chrome/107.0.0.0 Safari/537.36","WebKit","Chrome","107.0.0.0","Windows","10.0","[0]","","1","3",""
"7049","You see how a kitten is playing in the sandbox <br> T&uacute ves como un gatito est&aacute jugando en la caja de arena","{""Q0"":4}","trial","48134","survey-likert","36","859876","0.0-5.0-0.18","55","1","2022-11-29 21:26:12","2df368f4e41f066fd1c82c297b4a1108","46.222.83.165","Mozilla/5.0 (Windows NT 10.0; Win64; x64) AppleWebKit/537.36 (KHTML, like Gecko) Chrome/107.0.0.0 Safari/537.36","WebKit","Chrome","107.0.0.0","Windows","10.0","[0]","","52","4",""
"8264","You see how a teenage girl is playing the piano <br> T&uacute ves como una ni&ntildea adolescente est&aacute tocando el piano","{""Q0"":4}","trial","48134","survey-likert","37","868147","0.0-5.0-0.19","55","1","2022-11-29 21:26:12","2df368f4e41f066fd1c82c297b4a1108","46.222.83.165","Mozilla/5.0 (Windows NT 10.0; Win64; x64) AppleWebKit/537.36 (KHTML, like Gecko) Chrome/107.0.0.0 Safari/537.36","WebKit","Chrome","107.0.0.0","Windows","10.0","[0]","","54","4",""
"25823","You drop a bowling ball on a cracker <br> T&uacute tiras una bola de boliche a una galleta","{""Q0"":3}","trial","48134","survey-likert","38","893978","0.0-5.0-0.20","55","1","2022-11-29 21:26:12","2df368f4e41f066fd1c82c297b4a1108","46.222.83.165","Mozilla/5.0 (Windows NT 10.0; Win64; x64) AppleWebKit/537.36 (KHTML, like Gecko) Chrome/107.0.0.0 Safari/537.36","WebKit","Chrome","107.0.0.0","Windows","10.0","[0]","","4","3",""
"11875","You drop a bowling ball on a chocolate muffin <br> T&uacute tiras una bola de boliche a una magdalena de chocolate","{""Q0"":3}","trial","48134","survey-likert","39","905860","0.0-5.0-0.21","55","1","2022-11-29 21:26:12","2df368f4e41f066fd1c82c297b4a1108","46.222.83.165","Mozilla/5.0 (Windows NT 10.0; Win64; x64) AppleWebKit/537.36 (KHTML, like Gecko) Chrome/107.0.0.0 Safari/537.36","WebKit","Chrome","107.0.0.0","Windows","10.0","[0]","","16","3",""
"7489","You see how a giraffe is playing with a zebra <br> T&uacute ves como una jirafa est&aacute jugando con una cebra","{""Q0"":4}","trial","48134","survey-likert","40","913357","0.0-5.0-0.22","55","1","2022-11-29 21:26:12","2df368f4e41f066fd1c82c297b4a1108","46.222.83.165","Mozilla/5.0 (Windows NT 10.0; Win64; x64) AppleWebKit/537.36 (KHTML, like Gecko) Chrome/107.0.0.0 Safari/537.36","WebKit","Chrome","107.0.0.0","Windows","10.0","[0]","","65","4",""
"6639","You see how a woman is taking money out of a wallet <br> T&uacute ves como una mujer est&aacute sacando dinero de su billetera","{""Q0"":4}","trial","48134","survey-likert","41","920003","0.0-5.0-0.23","55","1","2022-11-29 21:26:12","2df368f4e41f066fd1c82c297b4a1108","46.222.83.165","Mozilla/5.0 (Windows NT 10.0; Win64; x64) AppleWebKit/537.36 (KHTML, like Gecko) Chrome/107.0.0.0 Safari/537.36","WebKit","Chrome","107.0.0.0","Windows","10.0","[0]","","44","4",""
"26714","You drop a bowling ball on a paper cup <br> T&uacute tiras una bola de boliche a un vaso de papel","{""Q0"":3}","trial","48134","survey-likert","42","946725","0.0-5.0-0.24","55","1","2022-11-29 21:26:12","2df368f4e41f066fd1c82c297b4a1108","46.222.83.165","Mozilla/5.0 (Windows NT 10.0; Win64; x64) AppleWebKit/537.36 (KHTML, like Gecko) Chrome/107.0.0.0 Safari/537.36","WebKit","Chrome","107.0.0.0","Windows","10.0","[0]","","24","3",""
"10265","You drop a bowling ball on a donut <br> T&uacute tiras una bola de boliche a una rosquilla","{""Q0"":3}","trial","48134","survey-likert","43","956999","0.0-5.0-0.25","55","1","2022-11-29 21:26:12","2df368f4e41f066fd1c82c297b4a1108","46.222.83.165","Mozilla/5.0 (Windows NT 10.0; Win64; x64) AppleWebKit/537.36 (KHTML, like Gecko) Chrome/107.0.0.0 Safari/537.36","WebKit","Chrome","107.0.0.0","Windows","10.0","[0]","","17","3",""
"17965","You see how an elephant is eating a watermelon <br> T&uacute ves como un elefante est&aacute comiendo una sand&iacutea","{""Q0"":4}","trial","48134","survey-likert","44","974971","0.0-5.0-0.26","55","1","2022-11-29 21:26:12","2df368f4e41f066fd1c82c297b4a1108","46.222.83.165","Mozilla/5.0 (Windows NT 10.0; Win64; x64) AppleWebKit/537.36 (KHTML, like Gecko) Chrome/107.0.0.0 Safari/537.36","WebKit","Chrome","107.0.0.0","Windows","10.0","[0]","","31","4",""
"6360","You see how a pilot is reading a book <br> T&uacute ves como un piloto est&aacute leyendo un libro","{""Q0"":4}","trial","48134","survey-likert","45","981340","0.0-5.0-0.27","55","1","2022-11-29 21:26:12","2df368f4e41f066fd1c82c297b4a1108","46.222.83.165","Mozilla/5.0 (Windows NT 10.0; Win64; x64) AppleWebKit/537.36 (KHTML, like Gecko) Chrome/107.0.0.0 Safari/537.36","WebKit","Chrome","107.0.0.0","Windows","10.0","[0]","","61","4",""
"8196","You drop a bowling ball on an egg <br> T&uacute tiras una bola de boliche a un huevo","{""Q0"":3}","trial","48134","survey-likert","46","989544","0.0-5.0-0.28","55","1","2022-11-29 21:26:12","2df368f4e41f066fd1c82c297b4a1108","46.222.83.165","Mozilla/5.0 (Windows NT 10.0; Win64; x64) AppleWebKit/537.36 (KHTML, like Gecko) Chrome/107.0.0.0 Safari/537.36","WebKit","Chrome","107.0.0.0","Windows","10.0","[0]","","6","3",""
"78500","You see how a nurse is taking a syringe <br> T&uacute ves como una enfermera est&aacute agarrando una jeringuilla","{""Q0"":3}","trial","48134","survey-likert","47","1068051","0.0-5.0-0.29","55","1","2022-11-29 21:26:12","2df368f4e41f066fd1c82c297b4a1108","46.222.83.165","Mozilla/5.0 (Windows NT 10.0; Win64; x64) AppleWebKit/537.36 (KHTML, like Gecko) Chrome/107.0.0.0 Safari/537.36","WebKit","Chrome","107.0.0.0","Windows","10.0","[0]","","48","3",""
"7256","You drop a bowling ball on an iPhone <br> T&uacute tiras una bola de boliche a un iPhone","{""Q0"":4}","trial","48134","survey-likert","48","1075314","0.0-5.0-0.30","55","1","2022-11-29 21:26:12","2df368f4e41f066fd1c82c297b4a1108","46.222.83.165","Mozilla/5.0 (Windows NT 10.0; Win64; x64) AppleWebKit/537.36 (KHTML, like Gecko) Chrome/107.0.0.0 Safari/537.36","WebKit","Chrome","107.0.0.0","Windows","10.0","[0]","","13","4",""
"18054","You see how a butterfly is sitting on a flower <br> T&uacute ves como una mariposa est&aacute reposando en una flor","{""Q0"":4}","trial","48134","survey-likert","49","1093376","0.0-5.0-0.31","55","1","2022-11-29 21:26:12","2df368f4e41f066fd1c82c297b4a1108","46.222.83.165","Mozilla/5.0 (Windows NT 10.0; Win64; x64) AppleWebKit/537.36 (KHTML, like Gecko) Chrome/107.0.0.0 Safari/537.36","WebKit","Chrome","107.0.0.0","Windows","10.0","[0]","","59","4",""
"6166","You see how a boy is peeling a banana <br> T&uacute ves como un ni&ntildeo est&aacute pelando una banana","{""Q0"":4}","trial","48134","survey-likert","50","1099549","0.0-5.0-0.32","55","1","2022-11-29 21:26:12","2df368f4e41f066fd1c82c297b4a1108","46.222.83.165","Mozilla/5.0 (Windows NT 10.0; Win64; x64) AppleWebKit/537.36 (KHTML, like Gecko) Chrome/107.0.0.0 Safari/537.36","WebKit","Chrome","107.0.0.0","Windows","10.0","[0]","","30","4",""
"6521","You see how a man is shaving his beard <br> T&uacute ves como un hombre se est&aacute afeitando la barba","{""Q0"":4}","trial","48134","survey-likert","51","1106079","0.0-5.0-0.33","55","1","2022-11-29 21:26:12","2df368f4e41f066fd1c82c297b4a1108","46.222.83.165","Mozilla/5.0 (Windows NT 10.0; Win64; x64) AppleWebKit/537.36 (KHTML, like Gecko) Chrome/107.0.0.0 Safari/537.36","WebKit","Chrome","107.0.0.0","Windows","10.0","[0]","","43","4",""
"30851","You drop a cabbage on the table <br> T&uacute tiras una col a la mesa","{""Q0"":1}","trial","48134","survey-likert","52","1136938","0.0-5.0-0.34","55","1","2022-11-29 21:26:12","2df368f4e41f066fd1c82c297b4a1108","46.222.83.165","Mozilla/5.0 (Windows NT 10.0; Win64; x64) AppleWebKit/537.36 (KHTML, like Gecko) Chrome/107.0.0.0 Safari/537.36","WebKit","Chrome","107.0.0.0","Windows","10.0","[0]","","35","1",""
"10706","You drop a cabbage on the table <br> T&uacute tiras una col a la mesa","{""Q0"":""dejas caer una col en la mesa""}","low_rate","48134","survey-text","53","1147653","0.0-5.0-1.34-0.34","55","1","2022-11-29 21:26:12","2df368f4e41f066fd1c82c297b4a1108","46.222.83.165","Mozilla/5.0 (Windows NT 10.0; Win64; x64) AppleWebKit/537.36 (KHTML, like Gecko) Chrome/107.0.0.0 Safari/537.36","WebKit","Chrome","107.0.0.0","Windows","10.0","","","35","",""
"11377","You drop a bowling ball on an empty can of beer <br> T&uacute tiras una bola de boliche a una lata de cerveza vac&iacutea","{""Q0"":3}","trial","48134","survey-likert","54","1159034","0.0-5.0-0.35","55","1","2022-11-29 21:26:12","2df368f4e41f066fd1c82c297b4a1108","46.222.83.165","Mozilla/5.0 (Windows NT 10.0; Win64; x64) AppleWebKit/537.36 (KHTML, like Gecko) Chrome/107.0.0.0 Safari/537.36","WebKit","Chrome","107.0.0.0","Windows","10.0","[0]","","3","3",""
"16128","You drop a ring on the newspaper <br> T&uacute tiras un anillo al peri&oacutedico","{""Q0"":1}","trial","48134","survey-likert","55","1175172","0.0-5.0-0.36","55","1","2022-11-29 21:26:12","2df368f4e41f066fd1c82c297b4a1108","46.222.83.165","Mozilla/5.0 (Windows NT 10.0; Win64; x64) AppleWebKit/537.36 (KHTML, like Gecko) Chrome/107.0.0.0 Safari/537.36","WebKit","Chrome","107.0.0.0","Windows","10.0","[0]","","41","1",""
"15526","You drop a ring on the newspaper <br> T&uacute tiras un anillo al peri&oacutedico","{""Q0"":""dejas caer un anillo en el periódico""}","low_rate","48134","survey-text","56","1190707","0.0-5.0-1.36-0.36","55","1","2022-11-29 21:26:12","2df368f4e41f066fd1c82c297b4a1108","46.222.83.165","Mozilla/5.0 (Windows NT 10.0; Win64; x64) AppleWebKit/537.36 (KHTML, like Gecko) Chrome/107.0.0.0 Safari/537.36","WebKit","Chrome","107.0.0.0","Windows","10.0","","","41","",""
"5480","You see how a thief is stealing a wallet <br> T&uacute ves como un ladr&oacuten est&aacute robando una billetera","{""Q0"":4}","trial","48134","survey-likert","57","1196189","0.0-5.0-0.37","55","1","2022-11-29 21:26:12","2df368f4e41f066fd1c82c297b4a1108","46.222.83.165","Mozilla/5.0 (Windows NT 10.0; Win64; x64) AppleWebKit/537.36 (KHTML, like Gecko) Chrome/107.0.0.0 Safari/537.36","WebKit","Chrome","107.0.0.0","Windows","10.0","[0]","","68","4",""
"5827","You see how an owl is sitting on the branch <br> T&uacute ves como un b&uacuteho est&aacute reposando en una rama","{""Q0"":4}","trial","48134","survey-likert","58","1202025","0.0-5.0-0.38","55","1","2022-11-29 21:26:12","2df368f4e41f066fd1c82c297b4a1108","46.222.83.165","Mozilla/5.0 (Windows NT 10.0; Win64; x64) AppleWebKit/537.36 (KHTML, like Gecko) Chrome/107.0.0.0 Safari/537.36","WebKit","Chrome","107.0.0.0","Windows","10.0","[0]","","69","4",""
"45262","You drop a bowling ball on a blackberry <br> T&uacute tiras una bola de boliche a una mora","{""Q0"":1}","trial","48134","survey-likert","59","1247294","0.0-5.0-0.39","55","1","2022-11-29 21:26:12","2df368f4e41f066fd1c82c297b4a1108","46.222.83.165","Mozilla/5.0 (Windows NT 10.0; Win64; x64) AppleWebKit/537.36 (KHTML, like Gecko) Chrome/107.0.0.0 Safari/537.36","WebKit","Chrome","107.0.0.0","Windows","10.0","[0]","","8","1",""
"14049","You drop a bowling ball on a blackberry <br> T&uacute tiras una bola de boliche a una mora","{""Q0"":""dejas caer una bola de bolos en una mora""}","low_rate","48134","survey-text","60","1261352","0.0-5.0-1.39-0.39","55","1","2022-11-29 21:26:12","2df368f4e41f066fd1c82c297b4a1108","46.222.83.165","Mozilla/5.0 (Windows NT 10.0; Win64; x64) AppleWebKit/537.36 (KHTML, like Gecko) Chrome/107.0.0.0 Safari/537.36","WebKit","Chrome","107.0.0.0","Windows","10.0","","","8","",""
"5188","You see how a photographer is taking a photo of a lion <br> T&uacute ves como un fot&oacutegrafo est&aacute tomando una foto de un le&oacuten","{""Q0"":4}","trial","48134","survey-likert","61","1266544","0.0-5.0-0.40","55","1","2022-11-29 21:26:12","2df368f4e41f066fd1c82c297b4a1108","46.222.83.165","Mozilla/5.0 (Windows NT 10.0; Win64; x64) AppleWebKit/537.36 (KHTML, like Gecko) Chrome/107.0.0.0 Safari/537.36","WebKit","Chrome","107.0.0.0","Windows","10.0","[0]","","72","4",""
"12013","You drop a bowling ball on a piece of cake <br> T&uacute tiras una bola de boliche a un trozo de pastel","{""Q0"":3}","trial","48134","survey-likert","62","1278564","0.0-5.0-0.41","55","1","2022-11-29 21:26:12","2df368f4e41f066fd1c82c297b4a1108","46.222.83.165","Mozilla/5.0 (Windows NT 10.0; Win64; x64) AppleWebKit/537.36 (KHTML, like Gecko) Chrome/107.0.0.0 Safari/537.36","WebKit","Chrome","107.0.0.0","Windows","10.0","[0]","","2","3",""
"12115","You drop a bowling ball on a tomato <br> T&uacute tiras una bola de boliche a un tomate","{""Q0"":3}","trial","48134","survey-likert","63","1290687","0.0-5.0-0.42","55","1","2022-11-29 21:26:12","2df368f4e41f066fd1c82c297b4a1108","46.222.83.165","Mozilla/5.0 (Windows NT 10.0; Win64; x64) AppleWebKit/537.36 (KHTML, like Gecko) Chrome/107.0.0.0 Safari/537.36","WebKit","Chrome","107.0.0.0","Windows","10.0","[0]","","23","3",""
"20071","You see how a police officer is talking on the phone <br> T&uacute ves como un polic&iacutea est&aacute hablando por el tel&eacutefono","{""Q0"":4}","trial","48134","survey-likert","64","1310767","0.0-5.0-0.43","55","1","2022-11-29 21:26:12","2df368f4e41f066fd1c82c297b4a1108","46.222.83.165","Mozilla/5.0 (Windows NT 10.0; Win64; x64) AppleWebKit/537.36 (KHTML, like Gecko) Chrome/107.0.0.0 Safari/537.36","WebKit","Chrome","107.0.0.0","Windows","10.0","[0]","","62","4",""
"5316","You see how a woman is paying with a debit card <br> T&uacute ves como una mujer est&aacute pagando con una tarjeta de d&eacutebito","{""Q0"":4}","trial","48134","survey-likert","65","1316091","0.0-5.0-0.44","55","1","2022-11-29 21:26:12","2df368f4e41f066fd1c82c297b4a1108","46.222.83.165","Mozilla/5.0 (Windows NT 10.0; Win64; x64) AppleWebKit/537.36 (KHTML, like Gecko) Chrome/107.0.0.0 Safari/537.36","WebKit","Chrome","107.0.0.0","Windows","10.0","[0]","","64","4",""
"5048","You see how a horse is chewing hay <br> T&uacute ves como un caballo est&aacute masticando el heno","{""Q0"":4}","trial","48134","survey-likert","66","1321147","0.0-5.0-0.45","55","1","2022-11-29 21:26:12","2df368f4e41f066fd1c82c297b4a1108","46.222.83.165","Mozilla/5.0 (Windows NT 10.0; Win64; x64) AppleWebKit/537.36 (KHTML, like Gecko) Chrome/107.0.0.0 Safari/537.36","WebKit","Chrome","107.0.0.0","Windows","10.0","[0]","","55","4",""
"20815","You see how a doctor is taking a stethoscope <br> T&uacute ves como un doctor est&aacute agarrando un estetoscopio","{""Q0"":4}","trial","48134","survey-likert","67","1341970","0.0-5.0-0.46","55","1","2022-11-29 21:26:12","2df368f4e41f066fd1c82c297b4a1108","46.222.83.165","Mozilla/5.0 (Windows NT 10.0; Win64; x64) AppleWebKit/537.36 (KHTML, like Gecko) Chrome/107.0.0.0 Safari/537.36","WebKit","Chrome","107.0.0.0","Windows","10.0","[0]","","49","4",""
"30267","You drop a towel on the TV <br> T&uacute tiras una toalla a la televisi&oacuten","{""Q0"":1}","trial","48134","survey-likert","68","1372243","0.0-5.0-0.47","55","1","2022-11-29 21:26:12","2df368f4e41f066fd1c82c297b4a1108","46.222.83.165","Mozilla/5.0 (Windows NT 10.0; Win64; x64) AppleWebKit/537.36 (KHTML, like Gecko) Chrome/107.0.0.0 Safari/537.36","WebKit","Chrome","107.0.0.0","Windows","10.0","[0]","","53","1",""
"12206","You drop a towel on the TV <br> T&uacute tiras una toalla a la televisi&oacuten","{""Q0"":""dejas caer una toalla en la televisión""}","low_rate","48134","survey-text","69","1384458","0.0-5.0-1.47-0.47","55","1","2022-11-29 21:26:12","2df368f4e41f066fd1c82c297b4a1108","46.222.83.165","Mozilla/5.0 (Windows NT 10.0; Win64; x64) AppleWebKit/537.36 (KHTML, like Gecko) Chrome/107.0.0.0 Safari/537.36","WebKit","Chrome","107.0.0.0","Windows","10.0","","","53","",""
"19460","You drop a remote on the rug <br> T&uacute tiras un control remoto a la alfombra","{""Q0"":1}","trial","48134","survey-likert","70","1403921","0.0-5.0-0.48","55","1","2022-11-29 21:26:12","2df368f4e41f066fd1c82c297b4a1108","46.222.83.165","Mozilla/5.0 (Windows NT 10.0; Win64; x64) AppleWebKit/537.36 (KHTML, like Gecko) Chrome/107.0.0.0 Safari/537.36","WebKit","Chrome","107.0.0.0","Windows","10.0","[0]","","39","1",""
"9970","You drop a remote on the rug <br> T&uacute tiras un control remoto a la alfombra","{""Q0"":""Tú dejas caer un control remoto en la alfombra""}","low_rate","48134","survey-text","71","1413900","0.0-5.0-1.48-0.48","55","1","2022-11-29 21:26:12","2df368f4e41f066fd1c82c297b4a1108","46.222.83.165","Mozilla/5.0 (Windows NT 10.0; Win64; x64) AppleWebKit/537.36 (KHTML, like Gecko) Chrome/107.0.0.0 Safari/537.36","WebKit","Chrome","107.0.0.0","Windows","10.0","","","39","",""
"4760","You see how a puppy is playing with a ball <br> T&uacute ves como un cachorro est&aacute jugando con una pelota","{""Q0"":4}","trial","48134","survey-likert","72","1418663","0.0-5.0-0.49","55","1","2022-11-29 21:26:12","2df368f4e41f066fd1c82c297b4a1108","46.222.83.165","Mozilla/5.0 (Windows NT 10.0; Win64; x64) AppleWebKit/537.36 (KHTML, like Gecko) Chrome/107.0.0.0 Safari/537.36","WebKit","Chrome","107.0.0.0","Windows","10.0","[0]","","34","4",""
"3848","You see how a musician is playing a guitar <br> T&uacute ves como un m&uacutesico est&aacute tocando la guitarra","{""Q0"":4}","trial","48134","survey-likert","73","1422519","0.0-5.0-0.50","55","1","2022-11-29 21:26:12","2df368f4e41f066fd1c82c297b4a1108","46.222.83.165","Mozilla/5.0 (Windows NT 10.0; Win64; x64) AppleWebKit/537.36 (KHTML, like Gecko) Chrome/107.0.0.0 Safari/537.36","WebKit","Chrome","107.0.0.0","Windows","10.0","[0]","","27","4",""
"4546","You see how a zebra is playing with a horse <br> T&uacute ves como una cebra est&aacute jugando con un caballo","{""Q0"":4}","trial","48134","survey-likert","74","1427073","0.0-5.0-0.51","55","1","2022-11-29 21:26:12","2df368f4e41f066fd1c82c297b4a1108","46.222.83.165","Mozilla/5.0 (Windows NT 10.0; Win64; x64) AppleWebKit/537.36 (KHTML, like Gecko) Chrome/107.0.0.0 Safari/537.36","WebKit","Chrome","107.0.0.0","Windows","10.0","[0]","","66","4",""
"12423","You drop a thermometer on the box <br> T&uacute tiras un term&oacutemetro a la caja","{""Q0"":1}","trial","48134","survey-likert","75","1439504","0.0-5.0-0.52","55","1","2022-11-29 21:26:12","2df368f4e41f066fd1c82c297b4a1108","46.222.83.165","Mozilla/5.0 (Windows NT 10.0; Win64; x64) AppleWebKit/537.36 (KHTML, like Gecko) Chrome/107.0.0.0 Safari/537.36","WebKit","Chrome","107.0.0.0","Windows","10.0","[0]","","70","1",""
"9187","You drop a thermometer on the box <br> T&uacute tiras un term&oacutemetro a la caja","{""Q0"":""Tú dejas caer un termómetro en la caja""}","low_rate","48134","survey-text","76","1448699","0.0-5.0-1.52-0.52","55","1","2022-11-29 21:26:12","2df368f4e41f066fd1c82c297b4a1108","46.222.83.165","Mozilla/5.0 (Windows NT 10.0; Win64; x64) AppleWebKit/537.36 (KHTML, like Gecko) Chrome/107.0.0.0 Safari/537.36","WebKit","Chrome","107.0.0.0","Windows","10.0","","","70","",""
"4925","You see how a man is boiling potatoes <br> T&uacute ves a un hombre est&aacute hirviendo papas","{""Q0"":4}","trial","48134","survey-likert","77","1453628","0.0-5.0-0.53","55","1","2022-11-29 21:26:12","2df368f4e41f066fd1c82c297b4a1108","46.222.83.165","Mozilla/5.0 (Windows NT 10.0; Win64; x64) AppleWebKit/537.36 (KHTML, like Gecko) Chrome/107.0.0.0 Safari/537.36","WebKit","Chrome","107.0.0.0","Windows","10.0","[0]","","46","4",""
"4658","You see how a postman is driving a car <br> T&uacute ves como un cartero est&aacute conduciendo un coche","{""Q0"":4}","trial","48134","survey-likert","78","1458294","0.0-5.0-0.54","55","1","2022-11-29 21:26:12","2df368f4e41f066fd1c82c297b4a1108","46.222.83.165","Mozilla/5.0 (Windows NT 10.0; Win64; x64) AppleWebKit/537.36 (KHTML, like Gecko) Chrome/107.0.0.0 Safari/537.36","WebKit","Chrome","107.0.0.0","Windows","10.0","[0]","","32","4",""
"7429","You drop a watch on the laptop <br> T&uacute tiras un reloj al port&aacutetil","{""Q0"":1}","trial","48134","survey-likert","79","1465731","0.0-5.0-0.55","55","1","2022-11-29 21:26:12","2df368f4e41f066fd1c82c297b4a1108","46.222.83.165","Mozilla/5.0 (Windows NT 10.0; Win64; x64) AppleWebKit/537.36 (KHTML, like Gecko) Chrome/107.0.0.0 Safari/537.36","WebKit","Chrome","107.0.0.0","Windows","10.0","[0]","","37","1",""
"16066","You drop a watch on the laptop <br> T&uacute tiras un reloj al port&aacutetil","{""Q0"":""Tú dejas caer un reloj en el portátil""}","low_rate","48134","survey-text","80","1481806","0.0-5.0-1.55-0.55","55","1","2022-11-29 21:26:12","2df368f4e41f066fd1c82c297b4a1108","46.222.83.165","Mozilla/5.0 (Windows NT 10.0; Win64; x64) AppleWebKit/537.36 (KHTML, like Gecko) Chrome/107.0.0.0 Safari/537.36","WebKit","Chrome","107.0.0.0","Windows","10.0","","","37","",""
"10907","You drop a bowling ball on a rice cake <br> T&uacute tiras una bola de boliche a una tortita de arroz","{""Q0"":3}","trial","48134","survey-likert","81","1492716","0.0-5.0-0.56","55","1","2022-11-29 21:26:12","2df368f4e41f066fd1c82c297b4a1108","46.222.83.165","Mozilla/5.0 (Windows NT 10.0; Win64; x64) AppleWebKit/537.36 (KHTML, like Gecko) Chrome/107.0.0.0 Safari/537.36","WebKit","Chrome","107.0.0.0","Windows","10.0","[0]","","18","3",""
"22072","You drop a bowling ball on a strawberry <br> T&uacute tiras una bola de boliche a una fresa","{""Q0"":1}","trial","48134","survey-likert","82","1514797","0.0-5.0-0.57","55","1","2022-11-29 21:26:12","2df368f4e41f066fd1c82c297b4a1108","46.222.83.165","Mozilla/5.0 (Windows NT 10.0; Win64; x64) AppleWebKit/537.36 (KHTML, like Gecko) Chrome/107.0.0.0 Safari/537.36","WebKit","Chrome","107.0.0.0","Windows","10.0","[0]","","20","1",""
"10961","You drop a bowling ball on a strawberry <br> T&uacute tiras una bola de boliche a una fresa","{""Q0"":""Tú dejas caer una bola de boliche en una fresa""}","low_rate","48134","survey-text","83","1525767","0.0-5.0-1.57-0.57","55","1","2022-11-29 21:26:12","2df368f4e41f066fd1c82c297b4a1108","46.222.83.165","Mozilla/5.0 (Windows NT 10.0; Win64; x64) AppleWebKit/537.36 (KHTML, like Gecko) Chrome/107.0.0.0 Safari/537.36","WebKit","Chrome","107.0.0.0","Windows","10.0","","","20","",""
"5691","You see how a president is writing in the notebook <br> T&uacute ves como un presidente est&aacute escribiendo en la libreta","{""Q0"":4}","trial","48134","survey-likert","84","1531462","0.0-5.0-0.58","55","1","2022-11-29 21:26:12","2df368f4e41f066fd1c82c297b4a1108","46.222.83.165","Mozilla/5.0 (Windows NT 10.0; Win64; x64) AppleWebKit/537.36 (KHTML, like Gecko) Chrome/107.0.0.0 Safari/537.36","WebKit","Chrome","107.0.0.0","Windows","10.0","[0]","","63","4",""
"3300","You see how a mouse is eating cheese <br> T&uacute ves como el rat&oacuten est&aacute comiendo queso","{""Q0"":4}","trial","48134","survey-likert","85","1534770","0.0-5.0-0.59","55","1","2022-11-29 21:26:12","2df368f4e41f066fd1c82c297b4a1108","46.222.83.165","Mozilla/5.0 (Windows NT 10.0; Win64; x64) AppleWebKit/537.36 (KHTML, like Gecko) Chrome/107.0.0.0 Safari/537.36","WebKit","Chrome","107.0.0.0","Windows","10.0","[0]","","56","4",""
"25432","You see how an old man is hammering a nail <br> T&uacute ves como un hombre anciano est&aacute martillando un clavo","{""Q0"":4}","trial","48134","survey-likert","86","1560210","0.0-5.0-0.60","55","1","2022-11-29 21:26:12","2df368f4e41f066fd1c82c297b4a1108","46.222.83.165","Mozilla/5.0 (Windows NT 10.0; Win64; x64) AppleWebKit/537.36 (KHTML, like Gecko) Chrome/107.0.0.0 Safari/537.36","WebKit","Chrome","107.0.0.0","Windows","10.0","[0]","","29","4",""
"11988","You drop a toothbrush on the sponge <br> T&uacute tiras un cepillo de dientes en la esponja","{""Q0"":1}","trial","48134","survey-likert","87","1572207","0.0-5.0-0.61","55","1","2022-11-29 21:26:12","2df368f4e41f066fd1c82c297b4a1108","46.222.83.165","Mozilla/5.0 (Windows NT 10.0; Win64; x64) AppleWebKit/537.36 (KHTML, like Gecko) Chrome/107.0.0.0 Safari/537.36","WebKit","Chrome","107.0.0.0","Windows","10.0","[0]","","25","1",""
"7292","You drop a toothbrush on the sponge <br> T&uacute tiras un cepillo de dientes en la esponja","{""Q0"":""Tú dejas caer un cepillo de dientes en la esponja""}","low_rate","48134","survey-text","88","1579509","0.0-5.0-1.61-0.61","55","1","2022-11-29 21:26:12","2df368f4e41f066fd1c82c297b4a1108","46.222.83.165","Mozilla/5.0 (Windows NT 10.0; Win64; x64) AppleWebKit/537.36 (KHTML, like Gecko) Chrome/107.0.0.0 Safari/537.36","WebKit","Chrome","107.0.0.0","Windows","10.0","","","25","",""
"5488","You see how a panda is resting on a tree <br> T&uacute ves como un panda est&aacute descansando en un &aacuterbol","{""Q0"":4}","trial","48134","survey-likert","89","1585001","0.0-5.0-0.62","55","1","2022-11-29 21:26:12","2df368f4e41f066fd1c82c297b4a1108","46.222.83.165","Mozilla/5.0 (Windows NT 10.0; Win64; x64) AppleWebKit/537.36 (KHTML, like Gecko) Chrome/107.0.0.0 Safari/537.36","WebKit","Chrome","107.0.0.0","Windows","10.0","[0]","","57","4",""
"16903","You drop a bowling ball on a wine glass <br> T&uacute tiras una bola de boliche a una copa de vino","{""Q0"":1}","trial","48134","survey-likert","90","1601913","0.0-5.0-0.63","55","1","2022-11-29 21:26:12","2df368f4e41f066fd1c82c297b4a1108","46.222.83.165","Mozilla/5.0 (Windows NT 10.0; Win64; x64) AppleWebKit/537.36 (KHTML, like Gecko) Chrome/107.0.0.0 Safari/537.36","WebKit","Chrome","107.0.0.0","Windows","10.0","[0]","","5","1",""
"10426","You drop a bowling ball on a wine glass <br> T&uacute tiras una bola de boliche a una copa de vino","{""Q0"":""Tú dejas caer una bola de boliche en una copa de vino""}","low_rate","48134","survey-text","91","1612348","0.0-5.0-1.63-0.63","55","1","2022-11-29 21:26:12","2df368f4e41f066fd1c82c297b4a1108","46.222.83.165","Mozilla/5.0 (Windows NT 10.0; Win64; x64) AppleWebKit/537.36 (KHTML, like Gecko) Chrome/107.0.0.0 Safari/537.36","WebKit","Chrome","107.0.0.0","Windows","10.0","","","5","",""
"8385","You see how an astronaut is putting on a space suit <br> T&uacute ves como un astronauta se est&aacute poniendo su traje espacial","{""Q0"":4}","trial","48134","survey-likert","92","1620737","0.0-5.0-0.64","55","1","2022-11-29 21:26:12","2df368f4e41f066fd1c82c297b4a1108","46.222.83.165","Mozilla/5.0 (Windows NT 10.0; Win64; x64) AppleWebKit/537.36 (KHTML, like Gecko) Chrome/107.0.0.0 Safari/537.36","WebKit","Chrome","107.0.0.0","Windows","10.0","[0]","","33","4",""
"30760","You drop a bowling ball on a piece of sushi <br> T&uacute tiras una bola de boliche a un pedazo de sushi","{""Q0"":1}","trial","48134","survey-likert","93","1651506","0.0-5.0-0.65","55","1","2022-11-29 21:26:12","2df368f4e41f066fd1c82c297b4a1108","46.222.83.165","Mozilla/5.0 (Windows NT 10.0; Win64; x64) AppleWebKit/537.36 (KHTML, like Gecko) Chrome/107.0.0.0 Safari/537.36","WebKit","Chrome","107.0.0.0","Windows","10.0","[0]","","21","1",""
"16087","You drop a bowling ball on a piece of sushi <br> T&uacute tiras una bola de boliche a un pedazo de sushi","{""Q0"":""Tú dejas caer una bola de boliche sobre un pedazo de sushi""}","low_rate","48134","survey-text","94","1667603","0.0-5.0-1.65-0.65","55","1","2022-11-29 21:26:12","2df368f4e41f066fd1c82c297b4a1108","46.222.83.165","Mozilla/5.0 (Windows NT 10.0; Win64; x64) AppleWebKit/537.36 (KHTML, like Gecko) Chrome/107.0.0.0 Safari/537.36","WebKit","Chrome","107.0.0.0","Windows","10.0","","","21","",""
"36185","You drop a bowling ball on an egg flan <br> T&uacute tiras una bola de boliche a un flan","{""Q0"":3}","trial","48134","survey-likert","95","1703791","0.0-5.0-0.66","55","1","2022-11-29 21:26:12","2df368f4e41f066fd1c82c297b4a1108","46.222.83.165","Mozilla/5.0 (Windows NT 10.0; Win64; x64) AppleWebKit/537.36 (KHTML, like Gecko) Chrome/107.0.0.0 Safari/537.36","WebKit","Chrome","107.0.0.0","Windows","10.0","[0]","","7","3",""
"9610","You see how an actress is taking a microphone <br> T&uacute ves como una actriz est&aacute agarrando el micr&oacutefono","{""Q0"":4}","trial","48134","survey-likert","96","1713410","0.0-5.0-0.67","55","1","2022-11-29 21:26:12","2df368f4e41f066fd1c82c297b4a1108","46.222.83.165","Mozilla/5.0 (Windows NT 10.0; Win64; x64) AppleWebKit/537.36 (KHTML, like Gecko) Chrome/107.0.0.0 Safari/537.36","WebKit","Chrome","107.0.0.0","Windows","10.0","[0]","","51","4",""
"4298","You see how a donkey is drinking water <br> T&uacute ves como un burro est&aacute bebiendo agua","{""Q0"":4}","trial","48134","survey-likert","97","1717717","0.0-5.0-0.68","55","1","2022-11-29 21:26:12","2df368f4e41f066fd1c82c297b4a1108","46.222.83.165","Mozilla/5.0 (Windows NT 10.0; Win64; x64) AppleWebKit/537.36 (KHTML, like Gecko) Chrome/107.0.0.0 Safari/537.36","WebKit","Chrome","107.0.0.0","Windows","10.0","[0]","","45","4",""
"9783","You drop a bowling ball on an iPAD <br> T&uacute tiras una bola de boliche a un iPad","{""Q0"":3}","trial","48134","survey-likert","98","1727508","0.0-5.0-0.69","55","1","2022-11-29 21:26:12","2df368f4e41f066fd1c82c297b4a1108","46.222.83.165","Mozilla/5.0 (Windows NT 10.0; Win64; x64) AppleWebKit/537.36 (KHTML, like Gecko) Chrome/107.0.0.0 Safari/537.36","WebKit","Chrome","107.0.0.0","Windows","10.0","[0]","","12","3",""
"28460","You drop a bowling ball on a light bulb <br> T&uacute tiras una bola de boliche a una bombilla","{""Q0"":1}","trial","48134","survey-likert","99","1755977","0.0-5.0-0.70","55","1","2022-11-29 21:26:12","2df368f4e41f066fd1c82c297b4a1108","46.222.83.165","Mozilla/5.0 (Windows NT 10.0; Win64; x64) AppleWebKit/537.36 (KHTML, like Gecko) Chrome/107.0.0.0 Safari/537.36","WebKit","Chrome","107.0.0.0","Windows","10.0","[0]","","14","1",""
"11927","You drop a bowling ball on a light bulb <br> T&uacute tiras una bola de boliche a una bombilla","{""Q0"":""Tú dejas caer una bola de boliche en una bombilla""}","low_rate","48134","survey-text","100","1767914","0.0-5.0-1.70-0.70","55","1","2022-11-29 21:26:12","2df368f4e41f066fd1c82c297b4a1108","46.222.83.165","Mozilla/5.0 (Windows NT 10.0; Win64; x64) AppleWebKit/537.36 (KHTML, like Gecko) Chrome/107.0.0.0 Safari/537.36","WebKit","Chrome","107.0.0.0","Windows","10.0","","","14","",""
"4396","You see how a man is playing with a cat <br> T&uacute ves como un hombre est&aacute jugando con un gato","{""Q0"":4}","trial","48134","survey-likert","101","1772314","0.0-5.0-0.71","55","1","2022-11-29 21:26:12","2df368f4e41f066fd1c82c297b4a1108","46.222.83.165","Mozilla/5.0 (Windows NT 10.0; Win64; x64) AppleWebKit/537.36 (KHTML, like Gecko) Chrome/107.0.0.0 Safari/537.36","WebKit","Chrome","107.0.0.0","Windows","10.0","[0]","","67","4",""
"5207","
    <p style=""font-size:20px;""> You have completed the experiment portion! </p>
    <p style=""font-size:20px;""> Before you are done, we would like you to answer some basic demographic questions. </p>
    <p style=""font-size:20px;""> Note that your answers to these questions will not affect your compensation/credit. </p>
    <p style=""font-size:20px;""> Click the button below to continue.</p>
    ","0","demo","48134","html-button-response","102","1777531","0.0-6.0","55","1","2022-11-29 21:26:12","2df368f4e41f066fd1c82c297b4a1108","46.222.83.165","Mozilla/5.0 (Windows NT 10.0; Win64; x64) AppleWebKit/537.36 (KHTML, like Gecko) Chrome/107.0.0.0 Safari/537.36","WebKit","Chrome","107.0.0.0","Windows","10.0","","","","",""
"25235","","{""Age"":""34"",""Gender"":""Female"",""Education"":""18""}","demo","48134","survey-text","103","1802773","0.0-7.0-0.0","55","1","2022-11-29 21:26:12","2df368f4e41f066fd1c82c297b4a1108","46.222.83.165","Mozilla/5.0 (Windows NT 10.0; Win64; x64) AppleWebKit/537.36 (KHTML, like Gecko) Chrome/107.0.0.0 Safari/537.36","WebKit","Chrome","107.0.0.0","Windows","10.0","","","","",""
"9015","","{""Race"":[""White/Caucasian""]}","demo","48134","survey-multi-select","104","1811797","0.0-7.0-1.0","55","1","2022-11-29 21:26:12","2df368f4e41f066fd1c82c297b4a1108","46.222.83.165","Mozilla/5.0 (Windows NT 10.0; Win64; x64) AppleWebKit/537.36 (KHTML, like Gecko) Chrome/107.0.0.0 Safari/537.36","WebKit","Chrome","107.0.0.0","Windows","10.0","[0]","","","",""
"10836","","{""Latino"":""Yes"",""Alert"":""Morning""}","demo","48134","survey-multi-choice","105","1822636","0.0-7.0-2.0","55","1","2022-11-29 21:26:12","2df368f4e41f066fd1c82c297b4a1108","46.222.83.165","Mozilla/5.0 (Windows NT 10.0; Win64; x64) AppleWebKit/537.36 (KHTML, like Gecko) Chrome/107.0.0.0 Safari/537.36","WebKit","Chrome","107.0.0.0","Windows","10.0","[0,1]","","","",""
"28770","","{""Q0"":""everything is fine""}","demo","48134","survey-text","106","1851417","0.0-7.0-3.0","55","1","2022-11-29 21:26:12","2df368f4e41f066fd1c82c297b4a1108","46.222.83.165","Mozilla/5.0 (Windows NT 10.0; Win64; x64) AppleWebKit/537.36 (KHTML, like Gecko) Chrome/107.0.0.0 Safari/537.36","WebKit","Chrome","107.0.0.0","Windows","10.0","","","","",""
"34970","<p>Thank you for participating! </p><strong>Your completion code is: CXEJB7NH. Please copy-paste this code and submit it on Prolific.</strong><p>Click <a href=""https://drive.google.com/file/d/1c70cdHFlc0AaR6RujLWLJwWkv1RbHQJY/view?usp=sharing"" target=""_blank"" rel=""noopener noreferrer"">here</a> to access the debriefing form and know more about our research. <p> Please click the button below to finish the experiment and save your data.</p> <p> IMPORTANT: Please <strong>do not leave this page </strong> without clicking the button below.</p> <p> You may close the tab/window after you click the button below.","0","","","html-button-response","107","1886398","0.0-8.0","55","1","2022-11-29 21:26:12","2df368f4e41f066fd1c82c297b4a1108","46.222.83.165","Mozilla/5.0 (Windows NT 10.0; Win64; x64) AppleWebKit/537.36 (KHTML, like Gecko) Chrome/107.0.0.0 Safari/537.36","WebKit","Chrome","107.0.0.0","Windows","10.0","","","","",""
