"rt","stimulus","response","typeoftrial","subject","trial_type","trial_index","time_elapsed","internal_node_id","run_id","condition","recorded_at","source_code_version","ip","user_agent","device","browser","browser_version","platform","platform_version","question_order","practice_rating","sentence_num","rating","Experiment"
"1606","
        <p style=""font-size:20px;""> Welcome! Thank you for your interest in our study. </p>
        <p style=""font-size:20px;""> This study is being conducted by researchers at Bowdoin College.</p>
        <p style=""font-size:20px;""> In this experiment, you will be asked to rate the accuracy of English and Spanish translations.</p>
        <p style=""font-size:20px;""> The entire experiment should not last more than 20 minutes. You will be paid $3 USD for your participation. </p>
        <p style=""font-size:20px;""> Please click <a href = ""https://drive.google.com/file/d/1L92a02eEKCpaAEipmqDcBCDR7rsarqFE/view?usp=sharing"" target = ""_blank"">here</a> to read the full consent form. </p>
        <p style=""font-size:20px;""> If you agree to participate, please click the button below to continue to experiment instructions.</p>
        ","0","consent","95630","html-button-response","0","1608","0.0-0.0","32","1","2022-11-29 21:25:00","2df368f4e41f066fd1c82c297b4a1108","190.45.146.209","Mozilla/5.0 (Windows NT 10.0; Win64; x64) AppleWebKit/537.36 (KHTML, like Gecko) Chrome/107.0.0.0 Safari/537.36","WebKit","Chrome","107.0.0.0","Windows","10.0","","","","",""
"6110","","{""ID"":""6164e06782ce91f79f9523d5""}","ID","95630","survey-text","1","7727","0.0-1.0","32","1","2022-11-29 21:25:00","2df368f4e41f066fd1c82c297b4a1108","190.45.146.209","Mozilla/5.0 (Windows NT 10.0; Win64; x64) AppleWebKit/537.36 (KHTML, like Gecko) Chrome/107.0.0.0 Safari/537.36","WebKit","Chrome","107.0.0.0","Windows","10.0","","","","",""
"4660","
        <p style=""font-size:20px;""> You are about to begin the practice test. </p>
        <p style=""font-size:20px;""> On each trial, you will see a sentence in English and its corresponding Spanish translation. </p>
        <p style=""font-size:20px;""> You will rate the accuracy of the translation on a scale from ""Not at all accurate"" to ""Very accurate."" </p>
        <p style=""font-size:20px;""> If you rate the translation as ""Somewhat innaccurate"" or ""Not at all accurate,"" you will be asked to provide your own translation or a reason why the translation is inaccurate. </p>
        <p style=""font-size:20px;""> Click the button below to continue to the practice session.</p>","0","instructions","95630","html-button-response","2","12389","0.0-2.0","32","1","2022-11-29 21:25:00","2df368f4e41f066fd1c82c297b4a1108","190.45.146.209","Mozilla/5.0 (Windows NT 10.0; Win64; x64) AppleWebKit/537.36 (KHTML, like Gecko) Chrome/107.0.0.0 Safari/537.36","WebKit","Chrome","107.0.0.0","Windows","10.0","","","","",""
"7866","You see how a tiger is playing with a goose <br> T&uacute ves como un le&oacuten come una pizza","{""Q0"":0}","practice","95630","survey-likert","3","20259","0.0-3.0-0.0","32","1","2022-11-29 21:25:00","2df368f4e41f066fd1c82c297b4a1108","190.45.146.209","Mozilla/5.0 (Windows NT 10.0; Win64; x64) AppleWebKit/537.36 (KHTML, like Gecko) Chrome/107.0.0.0 Safari/537.36","WebKit","Chrome","107.0.0.0","Windows","10.0","[0]","0","","",""
"18848","You see how a tiger is playing with a goose <br> T&uacute ves como un le&oacuten come una pizza","{""Q0"":""Tú ves como el tigre juega con el ganso ""}","practice_low_rate","95630","survey-text","4","39115","0.0-3.0-1.0-0.0","32","1","2022-11-29 21:25:00","2df368f4e41f066fd1c82c297b4a1108","190.45.146.209","Mozilla/5.0 (Windows NT 10.0; Win64; x64) AppleWebKit/537.36 (KHTML, like Gecko) Chrome/107.0.0.0 Safari/537.36","WebKit","Chrome","107.0.0.0","Windows","10.0","","","5","",""
"10883","You see how a duck is playing with a pumpkin <br> T&uacute ves como un pato est&aacute jugando con una calabaza","{""Q0"":4}","practice","95630","survey-likert","5","50002","0.0-3.0-0.1","32","1","2022-11-29 21:25:00","2df368f4e41f066fd1c82c297b4a1108","190.45.146.209","Mozilla/5.0 (Windows NT 10.0; Win64; x64) AppleWebKit/537.36 (KHTML, like Gecko) Chrome/107.0.0.0 Safari/537.36","WebKit","Chrome","107.0.0.0","Windows","10.0","[0]","4","","",""
"12548","You drop a rock on a phone <br> T&uacute tiras una piedra a un tel&eacutefono","{""Q0"":1}","practice","95630","survey-likert","6","62556","0.0-3.0-0.2","32","1","2022-11-29 21:25:00","2df368f4e41f066fd1c82c297b4a1108","190.45.146.209","Mozilla/5.0 (Windows NT 10.0; Win64; x64) AppleWebKit/537.36 (KHTML, like Gecko) Chrome/107.0.0.0 Safari/537.36","WebKit","Chrome","107.0.0.0","Windows","10.0","[0]","1","","",""
"20154","You drop a rock on a phone <br> T&uacute tiras una piedra a un tel&eacutefono","{""Q0"":""Se te cae una piedra sobre el teléfono""}","practice_low_rate","95630","survey-text","7","82717","0.0-3.0-1.2-0.2","32","1","2022-11-29 21:25:00","2df368f4e41f066fd1c82c297b4a1108","190.45.146.209","Mozilla/5.0 (Windows NT 10.0; Win64; x64) AppleWebKit/537.36 (KHTML, like Gecko) Chrome/107.0.0.0 Safari/537.36","WebKit","Chrome","107.0.0.0","Windows","10.0","","","1","",""
"8874","You drop a bowling ball on a mircrowave <br> T&uacute tiras una bola de boliche a un horno","{""Q0"":3}","practice","95630","survey-likert","8","91594","0.0-3.0-0.3","32","1","2022-11-29 21:25:00","2df368f4e41f066fd1c82c297b4a1108","190.45.146.209","Mozilla/5.0 (Windows NT 10.0; Win64; x64) AppleWebKit/537.36 (KHTML, like Gecko) Chrome/107.0.0.0 Safari/537.36","WebKit","Chrome","107.0.0.0","Windows","10.0","[0]","3","","",""
"5877","You see how an artist is running <br> T&uacute ves como un artista est&aacute corriendo","{""Q0"":3}","practice","95630","survey-likert","9","97483","0.0-3.0-0.4","32","1","2022-11-29 21:25:00","2df368f4e41f066fd1c82c297b4a1108","190.45.146.209","Mozilla/5.0 (Windows NT 10.0; Win64; x64) AppleWebKit/537.36 (KHTML, like Gecko) Chrome/107.0.0.0 Safari/537.36","WebKit","Chrome","107.0.0.0","Windows","10.0","[0]","3","","",""
"10164","You see how a teacher is drawing a picture <br> T&uacute ves como un maestro pinta una foto","{""Q0"":3}","practice","95630","survey-likert","10","107658","0.0-3.0-0.5","32","1","2022-11-29 21:25:00","2df368f4e41f066fd1c82c297b4a1108","190.45.146.209","Mozilla/5.0 (Windows NT 10.0; Win64; x64) AppleWebKit/537.36 (KHTML, like Gecko) Chrome/107.0.0.0 Safari/537.36","WebKit","Chrome","107.0.0.0","Windows","10.0","[0]","3","","",""
"1975","<p style=""font-size:20px;"">You have now completed the practice session! </p>
        <p style=""font-size:20px;"">You will now move on to the main experiment. </p>
        <p style=""font-size:20px;"">Please click the button below to continue. </p>","0","movetoexp","95630","html-button-response","11","109641","0.0-4.0","32","1","2022-11-29 21:25:00","2df368f4e41f066fd1c82c297b4a1108","190.45.146.209","Mozilla/5.0 (Windows NT 10.0; Win64; x64) AppleWebKit/537.36 (KHTML, like Gecko) Chrome/107.0.0.0 Safari/537.36","WebKit","Chrome","107.0.0.0","Windows","10.0","","","","",""
"9121","You see how a boy is peeling a banana <br> T&uacute ves como un ni&ntildeo est&aacute pelando una banana","{""Q0"":4}","trial","95630","survey-likert","12","118765","0.0-5.0-0.0","32","1","2022-11-29 21:25:00","2df368f4e41f066fd1c82c297b4a1108","190.45.146.209","Mozilla/5.0 (Windows NT 10.0; Win64; x64) AppleWebKit/537.36 (KHTML, like Gecko) Chrome/107.0.0.0 Safari/537.36","WebKit","Chrome","107.0.0.0","Windows","10.0","[0]","","30","4",""
"10197","You drop a needle on the mouse pad <br> T&uacute tiras una aguja a la alfombrilla para el rat&oacuten","{""Q0"":2}","trial","95630","survey-likert","13","128967","0.0-5.0-0.1","32","1","2022-11-29 21:25:00","2df368f4e41f066fd1c82c297b4a1108","190.45.146.209","Mozilla/5.0 (Windows NT 10.0; Win64; x64) AppleWebKit/537.36 (KHTML, like Gecko) Chrome/107.0.0.0 Safari/537.36","WebKit","Chrome","107.0.0.0","Windows","10.0","[0]","","42","2",""
"8403","You see how a woman is paying with a debit card <br> T&uacute ves como una mujer est&aacute pagando con una tarjeta de d&eacutebito","{""Q0"":4}","trial","95630","survey-likert","14","137381","0.0-5.0-0.2","32","1","2022-11-29 21:25:00","2df368f4e41f066fd1c82c297b4a1108","190.45.146.209","Mozilla/5.0 (Windows NT 10.0; Win64; x64) AppleWebKit/537.36 (KHTML, like Gecko) Chrome/107.0.0.0 Safari/537.36","WebKit","Chrome","107.0.0.0","Windows","10.0","[0]","","64","4",""
"6935","You see how a doctor is taking a stethoscope <br> T&uacute ves como un doctor est&aacute agarrando un estetoscopio","{""Q0"":3}","trial","95630","survey-likert","15","144323","0.0-5.0-0.3","32","1","2022-11-29 21:25:00","2df368f4e41f066fd1c82c297b4a1108","190.45.146.209","Mozilla/5.0 (Windows NT 10.0; Win64; x64) AppleWebKit/537.36 (KHTML, like Gecko) Chrome/107.0.0.0 Safari/537.36","WebKit","Chrome","107.0.0.0","Windows","10.0","[0]","","49","3",""
"6854","You see how an astronaut is putting on a space suit <br> T&uacute ves como un astronauta se est&aacute poniendo su traje espacial","{""Q0"":4}","trial","95630","survey-likert","16","151183","0.0-5.0-0.4","32","1","2022-11-29 21:25:00","2df368f4e41f066fd1c82c297b4a1108","190.45.146.209","Mozilla/5.0 (Windows NT 10.0; Win64; x64) AppleWebKit/537.36 (KHTML, like Gecko) Chrome/107.0.0.0 Safari/537.36","WebKit","Chrome","107.0.0.0","Windows","10.0","[0]","","33","4",""
"9465","You drop a bowling ball on a chocolate ice-cream <br> T&uacute tiras una bola de boliche a un helado de chocolate","{""Q0"":2}","trial","95630","survey-likert","17","160655","0.0-5.0-0.5","32","1","2022-11-29 21:25:00","2df368f4e41f066fd1c82c297b4a1108","190.45.146.209","Mozilla/5.0 (Windows NT 10.0; Win64; x64) AppleWebKit/537.36 (KHTML, like Gecko) Chrome/107.0.0.0 Safari/537.36","WebKit","Chrome","107.0.0.0","Windows","10.0","[0]","","11","2",""
"4400","You see how a man is playing with a cat <br> T&uacute ves como un hombre est&aacute jugando con un gato","{""Q0"":4}","trial","95630","survey-likert","18","165062","0.0-5.0-0.6","32","1","2022-11-29 21:25:00","2df368f4e41f066fd1c82c297b4a1108","190.45.146.209","Mozilla/5.0 (Windows NT 10.0; Win64; x64) AppleWebKit/537.36 (KHTML, like Gecko) Chrome/107.0.0.0 Safari/537.36","WebKit","Chrome","107.0.0.0","Windows","10.0","[0]","","67","4",""
"10949","You drop a bowling ball on a blackberry <br> T&uacute tiras una bola de boliche a una mora","{""Q0"":3}","trial","95630","survey-likert","19","176018","0.0-5.0-0.7","32","1","2022-11-29 21:25:00","2df368f4e41f066fd1c82c297b4a1108","190.45.146.209","Mozilla/5.0 (Windows NT 10.0; Win64; x64) AppleWebKit/537.36 (KHTML, like Gecko) Chrome/107.0.0.0 Safari/537.36","WebKit","Chrome","107.0.0.0","Windows","10.0","[0]","","8","3",""
"10019","You see how a horse is chewing hay <br> T&uacute ves como un caballo est&aacute masticando el heno","{""Q0"":1}","trial","95630","survey-likert","20","186048","0.0-5.0-0.8","32","1","2022-11-29 21:25:00","2df368f4e41f066fd1c82c297b4a1108","190.45.146.209","Mozilla/5.0 (Windows NT 10.0; Win64; x64) AppleWebKit/537.36 (KHTML, like Gecko) Chrome/107.0.0.0 Safari/537.36","WebKit","Chrome","107.0.0.0","Windows","10.0","[0]","","55","1",""
"44465","You see how a horse is chewing hay <br> T&uacute ves como un caballo est&aacute masticando el heno","{""Q0"":""Tú ves cómo un caballo está masticando heno""}","low_rate","95630","survey-text","21","230520","0.0-5.0-1.8-0.8","32","1","2022-11-29 21:25:00","2df368f4e41f066fd1c82c297b4a1108","190.45.146.209","Mozilla/5.0 (Windows NT 10.0; Win64; x64) AppleWebKit/537.36 (KHTML, like Gecko) Chrome/107.0.0.0 Safari/537.36","WebKit","Chrome","107.0.0.0","Windows","10.0","","","55","",""
"5699","You see how a zebra is playing with a horse <br> T&uacute ves como una cebra est&aacute jugando con un caballo","{""Q0"":4}","trial","95630","survey-likert","22","236221","0.0-5.0-0.9","32","1","2022-11-29 21:25:00","2df368f4e41f066fd1c82c297b4a1108","190.45.146.209","Mozilla/5.0 (Windows NT 10.0; Win64; x64) AppleWebKit/537.36 (KHTML, like Gecko) Chrome/107.0.0.0 Safari/537.36","WebKit","Chrome","107.0.0.0","Windows","10.0","[0]","","66","4",""
"67223","You drop a bowling ball on a wine glass <br> T&uacute tiras una bola de boliche a una copa de vino","{""Q0"":1}","trial","95630","survey-likert","23","303451","0.0-5.0-0.10","32","1","2022-11-29 21:25:00","2df368f4e41f066fd1c82c297b4a1108","190.45.146.209","Mozilla/5.0 (Windows NT 10.0; Win64; x64) AppleWebKit/537.36 (KHTML, like Gecko) Chrome/107.0.0.0 Safari/537.36","WebKit","Chrome","107.0.0.0","Windows","10.0","[0]","","5","1",""
"23521","You drop a bowling ball on a wine glass <br> T&uacute tiras una bola de boliche a una copa de vino","{""Q0"":""Se te cae una bola de boliche en una copa de vino""}","low_rate","95630","survey-text","24","326985","0.0-5.0-1.10-0.10","32","1","2022-11-29 21:25:00","2df368f4e41f066fd1c82c297b4a1108","190.45.146.209","Mozilla/5.0 (Windows NT 10.0; Win64; x64) AppleWebKit/537.36 (KHTML, like Gecko) Chrome/107.0.0.0 Safari/537.36","WebKit","Chrome","107.0.0.0","Windows","10.0","","","5","",""
"7545","You drop a remote on the rug <br> T&uacute tiras un control remoto a la alfombra","{""Q0"":1}","trial","95630","survey-likert","25","334533","0.0-5.0-0.11","32","1","2022-11-29 21:25:00","2df368f4e41f066fd1c82c297b4a1108","190.45.146.209","Mozilla/5.0 (Windows NT 10.0; Win64; x64) AppleWebKit/537.36 (KHTML, like Gecko) Chrome/107.0.0.0 Safari/537.36","WebKit","Chrome","107.0.0.0","Windows","10.0","[0]","","39","1",""
"7072","You drop a remote on the rug <br> T&uacute tiras un control remoto a la alfombra","{""Q0"":""Se te cae el control remoto en la alfombra""}","low_rate","95630","survey-text","26","341618","0.0-5.0-1.11-0.11","32","1","2022-11-29 21:25:00","2df368f4e41f066fd1c82c297b4a1108","190.45.146.209","Mozilla/5.0 (Windows NT 10.0; Win64; x64) AppleWebKit/537.36 (KHTML, like Gecko) Chrome/107.0.0.0 Safari/537.36","WebKit","Chrome","107.0.0.0","Windows","10.0","","","39","",""
"7857","You drop a bowling ball on a porcelain figure <br> T&uacute tiras una bola de boliche a una figura de porcelana","{""Q0"":1}","trial","95630","survey-likert","27","349478","0.0-5.0-0.12","32","1","2022-11-29 21:25:00","2df368f4e41f066fd1c82c297b4a1108","190.45.146.209","Mozilla/5.0 (Windows NT 10.0; Win64; x64) AppleWebKit/537.36 (KHTML, like Gecko) Chrome/107.0.0.0 Safari/537.36","WebKit","Chrome","107.0.0.0","Windows","10.0","[0]","","1","1",""
"13158","You drop a bowling ball on a porcelain figure <br> T&uacute tiras una bola de boliche a una figura de porcelana","{""Q0"":""Se te cae una bola de boliche en una figura de porcelana""}","low_rate","95630","survey-text","28","362644","0.0-5.0-1.12-0.12","32","1","2022-11-29 21:25:00","2df368f4e41f066fd1c82c297b4a1108","190.45.146.209","Mozilla/5.0 (Windows NT 10.0; Win64; x64) AppleWebKit/537.36 (KHTML, like Gecko) Chrome/107.0.0.0 Safari/537.36","WebKit","Chrome","107.0.0.0","Windows","10.0","","","1","",""
"5392","You see how a man is shaving his beard <br> T&uacute ves como un hombre se est&aacute afeitando la barba","{""Q0"":4}","trial","95630","survey-likert","29","368038","0.0-5.0-0.13","32","1","2022-11-29 21:25:00","2df368f4e41f066fd1c82c297b4a1108","190.45.146.209","Mozilla/5.0 (Windows NT 10.0; Win64; x64) AppleWebKit/537.36 (KHTML, like Gecko) Chrome/107.0.0.0 Safari/537.36","WebKit","Chrome","107.0.0.0","Windows","10.0","[0]","","43","4",""
"9184","You drop a bowling ball on a donut <br> T&uacute tiras una bola de boliche a una rosquilla","{""Q0"":1}","trial","95630","survey-likert","30","377233","0.0-5.0-0.14","32","1","2022-11-29 21:25:00","2df368f4e41f066fd1c82c297b4a1108","190.45.146.209","Mozilla/5.0 (Windows NT 10.0; Win64; x64) AppleWebKit/537.36 (KHTML, like Gecko) Chrome/107.0.0.0 Safari/537.36","WebKit","Chrome","107.0.0.0","Windows","10.0","[0]","","17","1",""
"5365","You drop a bowling ball on a donut <br> T&uacute tiras una bola de boliche a una rosquilla","{""Q0"":""Se te cae una bola de boliche en una dona""}","low_rate","95630","survey-text","31","382606","0.0-5.0-1.14-0.14","32","1","2022-11-29 21:25:00","2df368f4e41f066fd1c82c297b4a1108","190.45.146.209","Mozilla/5.0 (Windows NT 10.0; Win64; x64) AppleWebKit/537.36 (KHTML, like Gecko) Chrome/107.0.0.0 Safari/537.36","WebKit","Chrome","107.0.0.0","Windows","10.0","","","17","",""
"4257","You see how a pilot is reading a book <br> T&uacute ves como un piloto est&aacute leyendo un libro","{""Q0"":4}","trial","95630","survey-likert","32","386865","0.0-5.0-0.15","32","1","2022-11-29 21:25:00","2df368f4e41f066fd1c82c297b4a1108","190.45.146.209","Mozilla/5.0 (Windows NT 10.0; Win64; x64) AppleWebKit/537.36 (KHTML, like Gecko) Chrome/107.0.0.0 Safari/537.36","WebKit","Chrome","107.0.0.0","Windows","10.0","[0]","","61","4",""
"5228","You drop a bowling ball on a strawberry <br> T&uacute tiras una bola de boliche a una fresa","{""Q0"":0}","trial","95630","survey-likert","33","392100","0.0-5.0-0.16","32","1","2022-11-29 21:25:00","2df368f4e41f066fd1c82c297b4a1108","190.45.146.209","Mozilla/5.0 (Windows NT 10.0; Win64; x64) AppleWebKit/537.36 (KHTML, like Gecko) Chrome/107.0.0.0 Safari/537.36","WebKit","Chrome","107.0.0.0","Windows","10.0","[0]","","20","0",""
"6168","You drop a bowling ball on a strawberry <br> T&uacute tiras una bola de boliche a una fresa","{""Q0"":""Se te cae una bola de boliche en una fresa""}","low_rate","95630","survey-text","34","398276","0.0-5.0-1.16-0.16","32","1","2022-11-29 21:25:00","2df368f4e41f066fd1c82c297b4a1108","190.45.146.209","Mozilla/5.0 (Windows NT 10.0; Win64; x64) AppleWebKit/537.36 (KHTML, like Gecko) Chrome/107.0.0.0 Safari/537.36","WebKit","Chrome","107.0.0.0","Windows","10.0","","","20","",""
"4820","You see how a puppy is playing with a ball <br> T&uacute ves como un cachorro est&aacute jugando con una pelota","{""Q0"":4}","trial","95630","survey-likert","35","403098","0.0-5.0-0.17","32","1","2022-11-29 21:25:00","2df368f4e41f066fd1c82c297b4a1108","190.45.146.209","Mozilla/5.0 (Windows NT 10.0; Win64; x64) AppleWebKit/537.36 (KHTML, like Gecko) Chrome/107.0.0.0 Safari/537.36","WebKit","Chrome","107.0.0.0","Windows","10.0","[0]","","34","4",""
"4818","You see how an elephant is eating a watermelon <br> T&uacute ves como un elefante est&aacute comiendo una sand&iacutea","{""Q0"":4}","trial","95630","survey-likert","36","407923","0.0-5.0-0.18","32","1","2022-11-29 21:25:00","2df368f4e41f066fd1c82c297b4a1108","190.45.146.209","Mozilla/5.0 (Windows NT 10.0; Win64; x64) AppleWebKit/537.36 (KHTML, like Gecko) Chrome/107.0.0.0 Safari/537.36","WebKit","Chrome","107.0.0.0","Windows","10.0","[0]","","31","4",""
"7142","You drop a bowling ball on a mirror <br> T&uacute tiras una bola de boliche a un espejo","{""Q0"":1}","trial","95630","survey-likert","37","415071","0.0-5.0-0.19","32","1","2022-11-29 21:25:00","2df368f4e41f066fd1c82c297b4a1108","190.45.146.209","Mozilla/5.0 (Windows NT 10.0; Win64; x64) AppleWebKit/537.36 (KHTML, like Gecko) Chrome/107.0.0.0 Safari/537.36","WebKit","Chrome","107.0.0.0","Windows","10.0","[0]","","15","1",""
"6965","You drop a bowling ball on a mirror <br> T&uacute tiras una bola de boliche a un espejo","{""Q0"":""Se te cae una bola de boliche en el espejo""}","low_rate","95630","survey-text","38","422043","0.0-5.0-1.19-0.19","32","1","2022-11-29 21:25:00","2df368f4e41f066fd1c82c297b4a1108","190.45.146.209","Mozilla/5.0 (Windows NT 10.0; Win64; x64) AppleWebKit/537.36 (KHTML, like Gecko) Chrome/107.0.0.0 Safari/537.36","WebKit","Chrome","107.0.0.0","Windows","10.0","","","15","",""
"5171","You see how a student is writing on a board <br> T&uacute ves como un estudiante est&aacute escribiendo en la pizarra","{""Q0"":4}","trial","95630","survey-likert","39","427217","0.0-5.0-0.20","32","1","2022-11-29 21:25:00","2df368f4e41f066fd1c82c297b4a1108","190.45.146.209","Mozilla/5.0 (Windows NT 10.0; Win64; x64) AppleWebKit/537.36 (KHTML, like Gecko) Chrome/107.0.0.0 Safari/537.36","WebKit","Chrome","107.0.0.0","Windows","10.0","[0]","","50","4",""
"9676","You see how a teenage girl is playing the piano <br> T&uacute ves como una ni&ntildea adolescente est&aacute tocando el piano","{""Q0"":2}","trial","95630","survey-likert","40","436900","0.0-5.0-0.21","32","1","2022-11-29 21:25:00","2df368f4e41f066fd1c82c297b4a1108","190.45.146.209","Mozilla/5.0 (Windows NT 10.0; Win64; x64) AppleWebKit/537.36 (KHTML, like Gecko) Chrome/107.0.0.0 Safari/537.36","WebKit","Chrome","107.0.0.0","Windows","10.0","[0]","","54","2",""
"11374","You drop a bowling ball on glasses <br> T&uacute tiras una bola de boliche a unas gafas","{""Q0"":0}","trial","95630","survey-likert","41","448282","0.0-5.0-0.22","32","1","2022-11-29 21:25:00","2df368f4e41f066fd1c82c297b4a1108","190.45.146.209","Mozilla/5.0 (Windows NT 10.0; Win64; x64) AppleWebKit/537.36 (KHTML, like Gecko) Chrome/107.0.0.0 Safari/537.36","WebKit","Chrome","107.0.0.0","Windows","10.0","[0]","","9","0",""
"5415","You drop a bowling ball on glasses <br> T&uacute tiras una bola de boliche a unas gafas","{""Q0"":""Se te cae una bola de boliche en los lentes""}","low_rate","95630","survey-text","42","453707","0.0-5.0-1.22-0.22","32","1","2022-11-29 21:25:00","2df368f4e41f066fd1c82c297b4a1108","190.45.146.209","Mozilla/5.0 (Windows NT 10.0; Win64; x64) AppleWebKit/537.36 (KHTML, like Gecko) Chrome/107.0.0.0 Safari/537.36","WebKit","Chrome","107.0.0.0","Windows","10.0","","","9","",""
"4813","You drop a bowling ball on a chocolate muffin <br> T&uacute tiras una bola de boliche a una magdalena de chocolate","{""Q0"":0}","trial","95630","survey-likert","43","458522","0.0-5.0-0.23","32","1","2022-11-29 21:25:00","2df368f4e41f066fd1c82c297b4a1108","190.45.146.209","Mozilla/5.0 (Windows NT 10.0; Win64; x64) AppleWebKit/537.36 (KHTML, like Gecko) Chrome/107.0.0.0 Safari/537.36","WebKit","Chrome","107.0.0.0","Windows","10.0","[0]","","16","0",""
"9175","You drop a bowling ball on a chocolate muffin <br> T&uacute tiras una bola de boliche a una magdalena de chocolate","{""Q0"":""Se te cae una bola de boliche en una magdalena de chocolate""}","low_rate","95630","survey-text","44","467705","0.0-5.0-1.23-0.23","32","1","2022-11-29 21:25:00","2df368f4e41f066fd1c82c297b4a1108","190.45.146.209","Mozilla/5.0 (Windows NT 10.0; Win64; x64) AppleWebKit/537.36 (KHTML, like Gecko) Chrome/107.0.0.0 Safari/537.36","WebKit","Chrome","107.0.0.0","Windows","10.0","","","16","",""
"3681","You drop a fork on the plate <br> T&uacute tiras un tenedor al plato","{""Q0"":0}","trial","95630","survey-likert","45","471389","0.0-5.0-0.24","32","1","2022-11-29 21:25:00","2df368f4e41f066fd1c82c297b4a1108","190.45.146.209","Mozilla/5.0 (Windows NT 10.0; Win64; x64) AppleWebKit/537.36 (KHTML, like Gecko) Chrome/107.0.0.0 Safari/537.36","WebKit","Chrome","107.0.0.0","Windows","10.0","[0]","","26","0",""
"4915","You drop a fork on the plate <br> T&uacute tiras un tenedor al plato","{""Q0"":""Se te cae un tenedor en el plato""}","low_rate","95630","survey-text","46","476317","0.0-5.0-1.24-0.24","32","1","2022-11-29 21:25:00","2df368f4e41f066fd1c82c297b4a1108","190.45.146.209","Mozilla/5.0 (Windows NT 10.0; Win64; x64) AppleWebKit/537.36 (KHTML, like Gecko) Chrome/107.0.0.0 Safari/537.36","WebKit","Chrome","107.0.0.0","Windows","10.0","","","26","",""
"7429","You drop a bowling ball on an egg <br> T&uacute tiras una bola de boliche a un huevo","{""Q0"":0}","trial","95630","survey-likert","47","483749","0.0-5.0-0.25","32","1","2022-11-29 21:25:00","2df368f4e41f066fd1c82c297b4a1108","190.45.146.209","Mozilla/5.0 (Windows NT 10.0; Win64; x64) AppleWebKit/537.36 (KHTML, like Gecko) Chrome/107.0.0.0 Safari/537.36","WebKit","Chrome","107.0.0.0","Windows","10.0","[0]","","6","0",""
"9935","You drop a bowling ball on an egg <br> T&uacute tiras una bola de boliche a un huevo","{""Q0"":""Se te cae una bola de boliche en un huevo""}","low_rate","95630","survey-text","48","493697","0.0-5.0-1.25-0.25","32","1","2022-11-29 21:25:00","2df368f4e41f066fd1c82c297b4a1108","190.45.146.209","Mozilla/5.0 (Windows NT 10.0; Win64; x64) AppleWebKit/537.36 (KHTML, like Gecko) Chrome/107.0.0.0 Safari/537.36","WebKit","Chrome","107.0.0.0","Windows","10.0","","","6","",""
"4692","You see how a woman is taking money out of a wallet <br> T&uacute ves como una mujer est&aacute sacando dinero de su billetera","{""Q0"":3}","trial","95630","survey-likert","49","498394","0.0-5.0-0.26","32","1","2022-11-29 21:25:00","2df368f4e41f066fd1c82c297b4a1108","190.45.146.209","Mozilla/5.0 (Windows NT 10.0; Win64; x64) AppleWebKit/537.36 (KHTML, like Gecko) Chrome/107.0.0.0 Safari/537.36","WebKit","Chrome","107.0.0.0","Windows","10.0","[0]","","44","3",""
"3380","You drop a bowling ball on a ceramic plate <br> T&uacute tiras una bola de boliche a un plato de cer&aacutemica","{""Q0"":0}","trial","95630","survey-likert","50","501786","0.0-5.0-0.27","32","1","2022-11-29 21:25:00","2df368f4e41f066fd1c82c297b4a1108","190.45.146.209","Mozilla/5.0 (Windows NT 10.0; Win64; x64) AppleWebKit/537.36 (KHTML, like Gecko) Chrome/107.0.0.0 Safari/537.36","WebKit","Chrome","107.0.0.0","Windows","10.0","[0]","","19","0",""
"4361","You drop a bowling ball on a ceramic plate <br> T&uacute tiras una bola de boliche a un plato de cer&aacutemica","{""Q0"":""Se te cae una bola de boliche en el plato""}","low_rate","95630","survey-text","51","506155","0.0-5.0-1.27-0.27","32","1","2022-11-29 21:25:00","2df368f4e41f066fd1c82c297b4a1108","190.45.146.209","Mozilla/5.0 (Windows NT 10.0; Win64; x64) AppleWebKit/537.36 (KHTML, like Gecko) Chrome/107.0.0.0 Safari/537.36","WebKit","Chrome","107.0.0.0","Windows","10.0","","","19","",""
"4275","You drop a bowling ball on a cracker <br> T&uacute tiras una bola de boliche a una galleta","{""Q0"":2}","trial","95630","survey-likert","52","510435","0.0-5.0-0.28","32","1","2022-11-29 21:25:00","2df368f4e41f066fd1c82c297b4a1108","190.45.146.209","Mozilla/5.0 (Windows NT 10.0; Win64; x64) AppleWebKit/537.36 (KHTML, like Gecko) Chrome/107.0.0.0 Safari/537.36","WebKit","Chrome","107.0.0.0","Windows","10.0","[0]","","4","2",""
"6594","You drop a toothbrush on the sponge <br> T&uacute tiras un cepillo de dientes en la esponja","{""Q0"":1}","trial","95630","survey-likert","53","517041","0.0-5.0-0.29","32","1","2022-11-29 21:25:00","2df368f4e41f066fd1c82c297b4a1108","190.45.146.209","Mozilla/5.0 (Windows NT 10.0; Win64; x64) AppleWebKit/537.36 (KHTML, like Gecko) Chrome/107.0.0.0 Safari/537.36","WebKit","Chrome","107.0.0.0","Windows","10.0","[0]","","25","1",""
"8609","You drop a toothbrush on the sponge <br> T&uacute tiras un cepillo de dientes en la esponja","{""Q0"":""Se te cae una bola de boliche en la esponja""}","low_rate","95630","survey-text","54","525658","0.0-5.0-1.29-0.29","32","1","2022-11-29 21:25:00","2df368f4e41f066fd1c82c297b4a1108","190.45.146.209","Mozilla/5.0 (Windows NT 10.0; Win64; x64) AppleWebKit/537.36 (KHTML, like Gecko) Chrome/107.0.0.0 Safari/537.36","WebKit","Chrome","107.0.0.0","Windows","10.0","","","25","",""
"5577","You drop a bowling ball on an egg flan <br> T&uacute tiras una bola de boliche a un flan","{""Q0"":2}","trial","95630","survey-likert","55","531238","0.0-5.0-0.30","32","1","2022-11-29 21:25:00","2df368f4e41f066fd1c82c297b4a1108","190.45.146.209","Mozilla/5.0 (Windows NT 10.0; Win64; x64) AppleWebKit/537.36 (KHTML, like Gecko) Chrome/107.0.0.0 Safari/537.36","WebKit","Chrome","107.0.0.0","Windows","10.0","[0]","","7","2",""
"220591","You drop a bowling ball on an iPAD <br> T&uacute tiras una bola de boliche a un iPad","{""Q0"":0}","trial","95630","survey-likert","56","751836","0.0-5.0-0.31","32","1","2022-11-29 21:25:00","2df368f4e41f066fd1c82c297b4a1108","190.45.146.209","Mozilla/5.0 (Windows NT 10.0; Win64; x64) AppleWebKit/537.36 (KHTML, like Gecko) Chrome/107.0.0.0 Safari/537.36","WebKit","Chrome","107.0.0.0","Windows","10.0","[0]","","12","0",""
"5970","You drop a bowling ball on an iPAD <br> T&uacute tiras una bola de boliche a un iPad","{""Q0"":""Se te cae una bola de boliche en un ipad""}","low_rate","95630","survey-text","57","757820","0.0-5.0-1.31-0.31","32","1","2022-11-29 21:25:00","2df368f4e41f066fd1c82c297b4a1108","190.45.146.209","Mozilla/5.0 (Windows NT 10.0; Win64; x64) AppleWebKit/537.36 (KHTML, like Gecko) Chrome/107.0.0.0 Safari/537.36","WebKit","Chrome","107.0.0.0","Windows","10.0","","","12","",""
"5231","You see how a man is boiling potatoes <br> T&uacute ves a un hombre est&aacute hirviendo papas","{""Q0"":4}","trial","95630","survey-likert","58","763054","0.0-5.0-0.32","32","1","2022-11-29 21:25:00","2df368f4e41f066fd1c82c297b4a1108","190.45.146.209","Mozilla/5.0 (Windows NT 10.0; Win64; x64) AppleWebKit/537.36 (KHTML, like Gecko) Chrome/107.0.0.0 Safari/537.36","WebKit","Chrome","107.0.0.0","Windows","10.0","[0]","","46","4",""
"3702","You drop a bowling ball on a tile <br> T&uacute tiras una bola de boliche a una baldosa","{""Q0"":0}","trial","95630","survey-likert","59","766763","0.0-5.0-0.33","32","1","2022-11-29 21:25:00","2df368f4e41f066fd1c82c297b4a1108","190.45.146.209","Mozilla/5.0 (Windows NT 10.0; Win64; x64) AppleWebKit/537.36 (KHTML, like Gecko) Chrome/107.0.0.0 Safari/537.36","WebKit","Chrome","107.0.0.0","Windows","10.0","[0]","","22","0",""
"4051","You drop a bowling ball on a tile <br> T&uacute tiras una bola de boliche a una baldosa","{""Q0"":""Se te cae una bola de boliche en una baldosa""}","low_rate","95630","survey-text","60","770827","0.0-5.0-1.33-0.33","32","1","2022-11-29 21:25:00","2df368f4e41f066fd1c82c297b4a1108","190.45.146.209","Mozilla/5.0 (Windows NT 10.0; Win64; x64) AppleWebKit/537.36 (KHTML, like Gecko) Chrome/107.0.0.0 Safari/537.36","WebKit","Chrome","107.0.0.0","Windows","10.0","","","22","",""
"5897","You see how a hairdresser is taking scissors <br> T&uacute ves como una peluquera est&aacute agarrando las tijeras","{""Q0"":4}","trial","95630","survey-likert","61","776728","0.0-5.0-0.34","32","1","2022-11-29 21:25:00","2df368f4e41f066fd1c82c297b4a1108","190.45.146.209","Mozilla/5.0 (Windows NT 10.0; Win64; x64) AppleWebKit/537.36 (KHTML, like Gecko) Chrome/107.0.0.0 Safari/537.36","WebKit","Chrome","107.0.0.0","Windows","10.0","[0]","","60","4",""
"4178","You drop a keyboard on the bed <br> T&uacute tiras un teclado a la cama","{""Q0"":0}","trial","95630","survey-likert","62","780913","0.0-5.0-0.35","32","1","2022-11-29 21:25:00","2df368f4e41f066fd1c82c297b4a1108","190.45.146.209","Mozilla/5.0 (Windows NT 10.0; Win64; x64) AppleWebKit/537.36 (KHTML, like Gecko) Chrome/107.0.0.0 Safari/537.36","WebKit","Chrome","107.0.0.0","Windows","10.0","[0]","","36","0",""
"3793","You drop a keyboard on the bed <br> T&uacute tiras un teclado a la cama","{""Q0"":""Se te cae una bola de boliche a la cama""}","low_rate","95630","survey-text","63","784714","0.0-5.0-1.35-0.35","32","1","2022-11-29 21:25:00","2df368f4e41f066fd1c82c297b4a1108","190.45.146.209","Mozilla/5.0 (Windows NT 10.0; Win64; x64) AppleWebKit/537.36 (KHTML, like Gecko) Chrome/107.0.0.0 Safari/537.36","WebKit","Chrome","107.0.0.0","Windows","10.0","","","36","",""
"4728","You see how a kitten is playing in the sandbox <br> T&uacute ves como un gatito est&aacute jugando en la caja de arena","{""Q0"":4}","trial","95630","survey-likert","64","789446","0.0-5.0-0.36","32","1","2022-11-29 21:25:00","2df368f4e41f066fd1c82c297b4a1108","190.45.146.209","Mozilla/5.0 (Windows NT 10.0; Win64; x64) AppleWebKit/537.36 (KHTML, like Gecko) Chrome/107.0.0.0 Safari/537.36","WebKit","Chrome","107.0.0.0","Windows","10.0","[0]","","52","4",""
"4261","You drop a bowling ball on a piece of sushi <br> T&uacute tiras una bola de boliche a un pedazo de sushi","{""Q0"":0}","trial","95630","survey-likert","65","793721","0.0-5.0-0.37","32","1","2022-11-29 21:25:00","2df368f4e41f066fd1c82c297b4a1108","190.45.146.209","Mozilla/5.0 (Windows NT 10.0; Win64; x64) AppleWebKit/537.36 (KHTML, like Gecko) Chrome/107.0.0.0 Safari/537.36","WebKit","Chrome","107.0.0.0","Windows","10.0","[0]","","21","0",""
"4268","You drop a bowling ball on a piece of sushi <br> T&uacute tiras una bola de boliche a un pedazo de sushi","{""Q0"":""Se te cae una bola de boliche en un pedazo de sushi""}","low_rate","95630","survey-text","66","797996","0.0-5.0-1.37-0.37","32","1","2022-11-29 21:25:00","2df368f4e41f066fd1c82c297b4a1108","190.45.146.209","Mozilla/5.0 (Windows NT 10.0; Win64; x64) AppleWebKit/537.36 (KHTML, like Gecko) Chrome/107.0.0.0 Safari/537.36","WebKit","Chrome","107.0.0.0","Windows","10.0","","","21","",""
"3568","You drop a bowling ball on a tomato <br> T&uacute tiras una bola de boliche a un tomate","{""Q0"":0}","trial","95630","survey-likert","67","801568","0.0-5.0-0.38","32","1","2022-11-29 21:25:00","2df368f4e41f066fd1c82c297b4a1108","190.45.146.209","Mozilla/5.0 (Windows NT 10.0; Win64; x64) AppleWebKit/537.36 (KHTML, like Gecko) Chrome/107.0.0.0 Safari/537.36","WebKit","Chrome","107.0.0.0","Windows","10.0","[0]","","23","0",""
"3577","You drop a bowling ball on a tomato <br> T&uacute tiras una bola de boliche a un tomate","{""Q0"":""Se te cae una bola de boliche en un tomate""}","low_rate","95630","survey-text","68","805158","0.0-5.0-1.38-0.38","32","1","2022-11-29 21:25:00","2df368f4e41f066fd1c82c297b4a1108","190.45.146.209","Mozilla/5.0 (Windows NT 10.0; Win64; x64) AppleWebKit/537.36 (KHTML, like Gecko) Chrome/107.0.0.0 Safari/537.36","WebKit","Chrome","107.0.0.0","Windows","10.0","","","23","",""
"180119","You drop a bowling ball on an empty can of beer <br> T&uacute tiras una bola de boliche a una lata de cerveza vac&iacutea","{""Q0"":0}","trial","95630","survey-likert","69","985286","0.0-5.0-0.39","32","1","2022-11-29 21:25:00","2df368f4e41f066fd1c82c297b4a1108","190.45.146.209","Mozilla/5.0 (Windows NT 10.0; Win64; x64) AppleWebKit/537.36 (KHTML, like Gecko) Chrome/107.0.0.0 Safari/537.36","WebKit","Chrome","107.0.0.0","Windows","10.0","[0]","","3","0",""
"12751","You drop a bowling ball on an empty can of beer <br> T&uacute tiras una bola de boliche a una lata de cerveza vac&iacutea","{""Q0"":""Se te cae una bola de boliche en una lata vacía""}","low_rate","95630","survey-text","70","998052","0.0-5.0-1.39-0.39","32","1","2022-11-29 21:25:00","2df368f4e41f066fd1c82c297b4a1108","190.45.146.209","Mozilla/5.0 (Windows NT 10.0; Win64; x64) AppleWebKit/537.36 (KHTML, like Gecko) Chrome/107.0.0.0 Safari/537.36","WebKit","Chrome","107.0.0.0","Windows","10.0","","","3","",""
"6240","You see how a police officer is talking on the phone <br> T&uacute ves como un polic&iacutea est&aacute hablando por el tel&eacutefono","{""Q0"":4}","trial","95630","survey-likert","71","1004297","0.0-5.0-0.40","32","1","2022-11-29 21:25:00","2df368f4e41f066fd1c82c297b4a1108","190.45.146.209","Mozilla/5.0 (Windows NT 10.0; Win64; x64) AppleWebKit/537.36 (KHTML, like Gecko) Chrome/107.0.0.0 Safari/537.36","WebKit","Chrome","107.0.0.0","Windows","10.0","[0]","","62","4",""
"3473","You drop a cushion on the magazine <br> T&uacute tiras un coj&iacuten a la revista","{""Q0"":0}","trial","95630","survey-likert","72","1007777","0.0-5.0-0.41","32","1","2022-11-29 21:25:00","2df368f4e41f066fd1c82c297b4a1108","190.45.146.209","Mozilla/5.0 (Windows NT 10.0; Win64; x64) AppleWebKit/537.36 (KHTML, like Gecko) Chrome/107.0.0.0 Safari/537.36","WebKit","Chrome","107.0.0.0","Windows","10.0","[0]","","38","0",""
"5904","You drop a cushion on the magazine <br> T&uacute tiras un coj&iacuten a la revista","{""Q0"":""Se te cae una almohada en la revista""}","low_rate","95630","survey-text","73","1013695","0.0-5.0-1.41-0.41","32","1","2022-11-29 21:25:00","2df368f4e41f066fd1c82c297b4a1108","190.45.146.209","Mozilla/5.0 (Windows NT 10.0; Win64; x64) AppleWebKit/537.36 (KHTML, like Gecko) Chrome/107.0.0.0 Safari/537.36","WebKit","Chrome","107.0.0.0","Windows","10.0","","","38","",""
"4745","You see how a parrot is eating an apple <br> T&uacute ves como un loro est&aacute comiendo una manzana","{""Q0"":3}","trial","95630","survey-likert","74","1018446","0.0-5.0-0.42","32","1","2022-11-29 21:25:00","2df368f4e41f066fd1c82c297b4a1108","190.45.146.209","Mozilla/5.0 (Windows NT 10.0; Win64; x64) AppleWebKit/537.36 (KHTML, like Gecko) Chrome/107.0.0.0 Safari/537.36","WebKit","Chrome","107.0.0.0","Windows","10.0","[0]","","58","3",""
"7107","You drop a thermometer on the box <br> T&uacute tiras un term&oacutemetro a la caja","{""Q0"":0}","trial","95630","survey-likert","75","1025564","0.0-5.0-0.43","32","1","2022-11-29 21:25:00","2df368f4e41f066fd1c82c297b4a1108","190.45.146.209","Mozilla/5.0 (Windows NT 10.0; Win64; x64) AppleWebKit/537.36 (KHTML, like Gecko) Chrome/107.0.0.0 Safari/537.36","WebKit","Chrome","107.0.0.0","Windows","10.0","[0]","","70","0",""
"4862","You drop a thermometer on the box <br> T&uacute tiras un term&oacutemetro a la caja","{""Q0"":""Se te cae el termómetro a la caja""}","low_rate","95630","survey-text","76","1030440","0.0-5.0-1.43-0.43","32","1","2022-11-29 21:25:00","2df368f4e41f066fd1c82c297b4a1108","190.45.146.209","Mozilla/5.0 (Windows NT 10.0; Win64; x64) AppleWebKit/537.36 (KHTML, like Gecko) Chrome/107.0.0.0 Safari/537.36","WebKit","Chrome","107.0.0.0","Windows","10.0","","","70","",""
"99788","You see how a nurse is taking a syringe <br> T&uacute ves como una enfermera est&aacute agarrando una jeringuilla","{""Q0"":3}","trial","95630","survey-likert","77","1130228","0.0-5.0-0.44","32","1","2022-11-29 21:25:00","2df368f4e41f066fd1c82c297b4a1108","190.45.146.209","Mozilla/5.0 (Windows NT 10.0; Win64; x64) AppleWebKit/537.36 (KHTML, like Gecko) Chrome/107.0.0.0 Safari/537.36","WebKit","Chrome","107.0.0.0","Windows","10.0","[0]","","48","3",""
"3214","You drop a bowling ball on a hat <br> T&uacute tiras una bola de boliche a una gorra","{""Q0"":0}","trial","95630","survey-likert","78","1133454","0.0-5.0-0.45","32","1","2022-11-29 21:25:00","2df368f4e41f066fd1c82c297b4a1108","190.45.146.209","Mozilla/5.0 (Windows NT 10.0; Win64; x64) AppleWebKit/537.36 (KHTML, like Gecko) Chrome/107.0.0.0 Safari/537.36","WebKit","Chrome","107.0.0.0","Windows","10.0","[0]","","10","0",""
"5650","You drop a bowling ball on a hat <br> T&uacute tiras una bola de boliche a una gorra","{""Q0"":""Se te cae una bola de boliche""}","low_rate","95630","survey-text","79","1139119","0.0-5.0-1.45-0.45","32","1","2022-11-29 21:25:00","2df368f4e41f066fd1c82c297b4a1108","190.45.146.209","Mozilla/5.0 (Windows NT 10.0; Win64; x64) AppleWebKit/537.36 (KHTML, like Gecko) Chrome/107.0.0.0 Safari/537.36","WebKit","Chrome","107.0.0.0","Windows","10.0","","","10","",""
"4267","You see how a butterfly is sitting on a flower <br> T&uacute ves como una mariposa est&aacute reposando en una flor","{""Q0"":4}","trial","95630","survey-likert","80","1143389","0.0-5.0-0.46","32","1","2022-11-29 21:25:00","2df368f4e41f066fd1c82c297b4a1108","190.45.146.209","Mozilla/5.0 (Windows NT 10.0; Win64; x64) AppleWebKit/537.36 (KHTML, like Gecko) Chrome/107.0.0.0 Safari/537.36","WebKit","Chrome","107.0.0.0","Windows","10.0","[0]","","59","4",""
"7056","You drop a bowling ball on a paper cup <br> T&uacute tiras una bola de boliche a un vaso de papel","{""Q0"":0}","trial","95630","survey-likert","81","1150453","0.0-5.0-0.47","32","1","2022-11-29 21:25:00","2df368f4e41f066fd1c82c297b4a1108","190.45.146.209","Mozilla/5.0 (Windows NT 10.0; Win64; x64) AppleWebKit/537.36 (KHTML, like Gecko) Chrome/107.0.0.0 Safari/537.36","WebKit","Chrome","107.0.0.0","Windows","10.0","[0]","","24","0",""
"10297","You drop a bowling ball on a paper cup <br> T&uacute tiras una bola de boliche a un vaso de papel","{""Q0"":""Se te cae una bola de boliche en un vaso de papel""}","low_rate","95630","survey-text","82","1160764","0.0-5.0-1.47-0.47","32","1","2022-11-29 21:25:00","2df368f4e41f066fd1c82c297b4a1108","190.45.146.209","Mozilla/5.0 (Windows NT 10.0; Win64; x64) AppleWebKit/537.36 (KHTML, like Gecko) Chrome/107.0.0.0 Safari/537.36","WebKit","Chrome","107.0.0.0","Windows","10.0","","","24","",""
"3954","You see how an actress is taking a microphone <br> T&uacute ves como una actriz est&aacute agarrando el micr&oacutefono","{""Q0"":3}","trial","95630","survey-likert","83","1164725","0.0-5.0-0.48","32","1","2022-11-29 21:25:00","2df368f4e41f066fd1c82c297b4a1108","190.45.146.209","Mozilla/5.0 (Windows NT 10.0; Win64; x64) AppleWebKit/537.36 (KHTML, like Gecko) Chrome/107.0.0.0 Safari/537.36","WebKit","Chrome","107.0.0.0","Windows","10.0","[0]","","51","3",""
"3837","You see how a musician is playing a guitar <br> T&uacute ves como un m&uacutesico est&aacute tocando la guitarra","{""Q0"":4}","trial","95630","survey-likert","84","1168573","0.0-5.0-0.49","32","1","2022-11-29 21:25:00","2df368f4e41f066fd1c82c297b4a1108","190.45.146.209","Mozilla/5.0 (Windows NT 10.0; Win64; x64) AppleWebKit/537.36 (KHTML, like Gecko) Chrome/107.0.0.0 Safari/537.36","WebKit","Chrome","107.0.0.0","Windows","10.0","[0]","","27","4",""
"4378","You drop a pencil on the shoe <br> T&uacute tiras un l&aacutepiz al zapato","{""Q0"":0}","trial","95630","survey-likert","85","1172959","0.0-5.0-0.50","32","1","2022-11-29 21:25:00","2df368f4e41f066fd1c82c297b4a1108","190.45.146.209","Mozilla/5.0 (Windows NT 10.0; Win64; x64) AppleWebKit/537.36 (KHTML, like Gecko) Chrome/107.0.0.0 Safari/537.36","WebKit","Chrome","107.0.0.0","Windows","10.0","[0]","","40","0",""
"7134","You drop a pencil on the shoe <br> T&uacute tiras un l&aacutepiz al zapato","{""Q0"":""Se te cae un lápiz en el zapato""}","low_rate","95630","survey-text","86","1180101","0.0-5.0-1.50-0.50","32","1","2022-11-29 21:25:00","2df368f4e41f066fd1c82c297b4a1108","190.45.146.209","Mozilla/5.0 (Windows NT 10.0; Win64; x64) AppleWebKit/537.36 (KHTML, like Gecko) Chrome/107.0.0.0 Safari/537.36","WebKit","Chrome","107.0.0.0","Windows","10.0","","","40","",""
"5182","You see how a photographer is taking a photo of a lion <br> T&uacute ves como un fot&oacutegrafo est&aacute tomando una foto de un le&oacuten","{""Q0"":4}","trial","95630","survey-likert","87","1185293","0.0-5.0-0.51","32","1","2022-11-29 21:25:00","2df368f4e41f066fd1c82c297b4a1108","190.45.146.209","Mozilla/5.0 (Windows NT 10.0; Win64; x64) AppleWebKit/537.36 (KHTML, like Gecko) Chrome/107.0.0.0 Safari/537.36","WebKit","Chrome","107.0.0.0","Windows","10.0","[0]","","72","4",""
"7406","You see how a donkey is drinking water <br> T&uacute ves como un burro est&aacute bebiendo agua","{""Q0"":4}","trial","95630","survey-likert","88","1192707","0.0-5.0-0.52","32","1","2022-11-29 21:25:00","2df368f4e41f066fd1c82c297b4a1108","190.45.146.209","Mozilla/5.0 (Windows NT 10.0; Win64; x64) AppleWebKit/537.36 (KHTML, like Gecko) Chrome/107.0.0.0 Safari/537.36","WebKit","Chrome","107.0.0.0","Windows","10.0","[0]","","45","4",""
"3782","You see how a panda is resting on a tree <br> T&uacute ves como un panda est&aacute descansando en un &aacuterbol","{""Q0"":4}","trial","95630","survey-likert","89","1196497","0.0-5.0-0.53","32","1","2022-11-29 21:25:00","2df368f4e41f066fd1c82c297b4a1108","190.45.146.209","Mozilla/5.0 (Windows NT 10.0; Win64; x64) AppleWebKit/537.36 (KHTML, like Gecko) Chrome/107.0.0.0 Safari/537.36","WebKit","Chrome","107.0.0.0","Windows","10.0","[0]","","57","4",""
"4265","You see how a cat is drinking water from a bowl <br> T&uacute ves como un gato est&aacute bebiendo agua de un cuenco","{""Q0"":4}","trial","95630","survey-likert","90","1200778","0.0-5.0-0.54","32","1","2022-11-29 21:25:00","2df368f4e41f066fd1c82c297b4a1108","190.45.146.209","Mozilla/5.0 (Windows NT 10.0; Win64; x64) AppleWebKit/537.36 (KHTML, like Gecko) Chrome/107.0.0.0 Safari/537.36","WebKit","Chrome","107.0.0.0","Windows","10.0","[0]","","28","4",""
"3885","You see how a cook is taking a knife <br> T&uacute ves como un cocinero est&aacute agarrando un cuchillo","{""Q0"":3}","trial","95630","survey-likert","91","1204671","0.0-5.0-0.55","32","1","2022-11-29 21:25:00","2df368f4e41f066fd1c82c297b4a1108","190.45.146.209","Mozilla/5.0 (Windows NT 10.0; Win64; x64) AppleWebKit/537.36 (KHTML, like Gecko) Chrome/107.0.0.0 Safari/537.36","WebKit","Chrome","107.0.0.0","Windows","10.0","[0]","","71","3",""
"14697","You drop a bowling ball on a light bulb <br> T&uacute tiras una bola de boliche a una bombilla","{""Q0"":0}","trial","95630","survey-likert","92","1219382","0.0-5.0-0.56","32","1","2022-11-29 21:25:00","2df368f4e41f066fd1c82c297b4a1108","190.45.146.209","Mozilla/5.0 (Windows NT 10.0; Win64; x64) AppleWebKit/537.36 (KHTML, like Gecko) Chrome/107.0.0.0 Safari/537.36","WebKit","Chrome","107.0.0.0","Windows","10.0","[0]","","14","0",""
"6443","You drop a bowling ball on a light bulb <br> T&uacute tiras una bola de boliche a una bombilla","{""Q0"":""Se te cae una bola de boliche en una bombilla""}","low_rate","95630","survey-text","93","1225836","0.0-5.0-1.56-0.56","32","1","2022-11-29 21:25:00","2df368f4e41f066fd1c82c297b4a1108","190.45.146.209","Mozilla/5.0 (Windows NT 10.0; Win64; x64) AppleWebKit/537.36 (KHTML, like Gecko) Chrome/107.0.0.0 Safari/537.36","WebKit","Chrome","107.0.0.0","Windows","10.0","","","14","",""
"3672","You drop a bowling ball on a rice cake <br> T&uacute tiras una bola de boliche a una tortita de arroz","{""Q0"":0}","trial","95630","survey-likert","94","1229512","0.0-5.0-0.57","32","1","2022-11-29 21:25:00","2df368f4e41f066fd1c82c297b4a1108","190.45.146.209","Mozilla/5.0 (Windows NT 10.0; Win64; x64) AppleWebKit/537.36 (KHTML, like Gecko) Chrome/107.0.0.0 Safari/537.36","WebKit","Chrome","107.0.0.0","Windows","10.0","[0]","","18","0",""
"3997","You drop a bowling ball on a rice cake <br> T&uacute tiras una bola de boliche a una tortita de arroz","{""Q0"":""Se te cae una bola de boliche en una tortita de arroz""}","low_rate","95630","survey-text","95","1233515","0.0-5.0-1.57-0.57","32","1","2022-11-29 21:25:00","2df368f4e41f066fd1c82c297b4a1108","190.45.146.209","Mozilla/5.0 (Windows NT 10.0; Win64; x64) AppleWebKit/537.36 (KHTML, like Gecko) Chrome/107.0.0.0 Safari/537.36","WebKit","Chrome","107.0.0.0","Windows","10.0","","","18","",""
"4008","You see how an owl is sitting on the branch <br> T&uacute ves como un b&uacuteho est&aacute reposando en una rama","{""Q0"":4}","trial","95630","survey-likert","96","1237527","0.0-5.0-0.58","32","1","2022-11-29 21:25:00","2df368f4e41f066fd1c82c297b4a1108","190.45.146.209","Mozilla/5.0 (Windows NT 10.0; Win64; x64) AppleWebKit/537.36 (KHTML, like Gecko) Chrome/107.0.0.0 Safari/537.36","WebKit","Chrome","107.0.0.0","Windows","10.0","[0]","","69","4",""
"4055","You drop a bowling ball on a piece of cake <br> T&uacute tiras una bola de boliche a un trozo de pastel","{""Q0"":2}","trial","95630","survey-likert","97","1241591","0.0-5.0-0.59","32","1","2022-11-29 21:25:00","2df368f4e41f066fd1c82c297b4a1108","190.45.146.209","Mozilla/5.0 (Windows NT 10.0; Win64; x64) AppleWebKit/537.36 (KHTML, like Gecko) Chrome/107.0.0.0 Safari/537.36","WebKit","Chrome","107.0.0.0","Windows","10.0","[0]","","2","2",""
"3163","You drop a cabbage on the table <br> T&uacute tiras una col a la mesa","{""Q0"":0}","trial","95630","survey-likert","98","1244763","0.0-5.0-0.60","32","1","2022-11-29 21:25:00","2df368f4e41f066fd1c82c297b4a1108","190.45.146.209","Mozilla/5.0 (Windows NT 10.0; Win64; x64) AppleWebKit/537.36 (KHTML, like Gecko) Chrome/107.0.0.0 Safari/537.36","WebKit","Chrome","107.0.0.0","Windows","10.0","[0]","","35","0",""
"8207","You drop a cabbage on the table <br> T&uacute tiras una col a la mesa","{""Q0"":""Se te cae un repollo a la mesa""}","low_rate","95630","survey-text","99","1252977","0.0-5.0-1.60-0.60","32","1","2022-11-29 21:25:00","2df368f4e41f066fd1c82c297b4a1108","190.45.146.209","Mozilla/5.0 (Windows NT 10.0; Win64; x64) AppleWebKit/537.36 (KHTML, like Gecko) Chrome/107.0.0.0 Safari/537.36","WebKit","Chrome","107.0.0.0","Windows","10.0","","","35","",""
"3740","You see how a giraffe is playing with a zebra <br> T&uacute ves como una jirafa est&aacute jugando con una cebra","{""Q0"":3}","trial","95630","survey-likert","100","1256719","0.0-5.0-0.61","32","1","2022-11-29 21:25:00","2df368f4e41f066fd1c82c297b4a1108","190.45.146.209","Mozilla/5.0 (Windows NT 10.0; Win64; x64) AppleWebKit/537.36 (KHTML, like Gecko) Chrome/107.0.0.0 Safari/537.36","WebKit","Chrome","107.0.0.0","Windows","10.0","[0]","","65","3",""
"4590","You drop a towel on the TV <br> T&uacute tiras una toalla a la televisi&oacuten","{""Q0"":0}","trial","95630","survey-likert","101","1261319","0.0-5.0-0.62","32","1","2022-11-29 21:25:00","2df368f4e41f066fd1c82c297b4a1108","190.45.146.209","Mozilla/5.0 (Windows NT 10.0; Win64; x64) AppleWebKit/537.36 (KHTML, like Gecko) Chrome/107.0.0.0 Safari/537.36","WebKit","Chrome","107.0.0.0","Windows","10.0","[0]","","53","0",""
"6846","You drop a towel on the TV <br> T&uacute tiras una toalla a la televisi&oacuten","{""Q0"":""Se te cae una toalla en la televisión""}","low_rate","95630","survey-text","102","1268172","0.0-5.0-1.62-0.62","32","1","2022-11-29 21:25:00","2df368f4e41f066fd1c82c297b4a1108","190.45.146.209","Mozilla/5.0 (Windows NT 10.0; Win64; x64) AppleWebKit/537.36 (KHTML, like Gecko) Chrome/107.0.0.0 Safari/537.36","WebKit","Chrome","107.0.0.0","Windows","10.0","","","53","",""
"4006","You see how a dentist is drinking a can of cola <br> T&uacute ves como un dentista est&aacute bebiendo una lata de cola","{""Q0"":4}","trial","95630","survey-likert","103","1272181","0.0-5.0-0.63","32","1","2022-11-29 21:25:00","2df368f4e41f066fd1c82c297b4a1108","190.45.146.209","Mozilla/5.0 (Windows NT 10.0; Win64; x64) AppleWebKit/537.36 (KHTML, like Gecko) Chrome/107.0.0.0 Safari/537.36","WebKit","Chrome","107.0.0.0","Windows","10.0","[0]","","47","4",""
"7842","You see how a mouse is eating cheese <br> T&uacute ves como el rat&oacuten est&aacute comiendo queso","{""Q0"":1}","trial","95630","survey-likert","104","1280030","0.0-5.0-0.64","32","1","2022-11-29 21:25:00","2df368f4e41f066fd1c82c297b4a1108","190.45.146.209","Mozilla/5.0 (Windows NT 10.0; Win64; x64) AppleWebKit/537.36 (KHTML, like Gecko) Chrome/107.0.0.0 Safari/537.36","WebKit","Chrome","107.0.0.0","Windows","10.0","[0]","","56","1",""
"6677","You see how a mouse is eating cheese <br> T&uacute ves como el rat&oacuten est&aacute comiendo queso","{""Q0"":""Tú ves como un ratón está comiendo queso""}","low_rate","95630","survey-text","105","1286714","0.0-5.0-1.64-0.64","32","1","2022-11-29 21:25:00","2df368f4e41f066fd1c82c297b4a1108","190.45.146.209","Mozilla/5.0 (Windows NT 10.0; Win64; x64) AppleWebKit/537.36 (KHTML, like Gecko) Chrome/107.0.0.0 Safari/537.36","WebKit","Chrome","107.0.0.0","Windows","10.0","","","56","",""
"3628","You drop a ring on the newspaper <br> T&uacute tiras un anillo al peri&oacutedico","{""Q0"":0}","trial","95630","survey-likert","106","1290345","0.0-5.0-0.65","32","1","2022-11-29 21:25:00","2df368f4e41f066fd1c82c297b4a1108","190.45.146.209","Mozilla/5.0 (Windows NT 10.0; Win64; x64) AppleWebKit/537.36 (KHTML, like Gecko) Chrome/107.0.0.0 Safari/537.36","WebKit","Chrome","107.0.0.0","Windows","10.0","[0]","","41","0",""
"7045","You drop a ring on the newspaper <br> T&uacute tiras un anillo al peri&oacutedico","{""Q0"":""Se te cae un anillo en el periódico""}","low_rate","95630","survey-text","107","1297398","0.0-5.0-1.65-0.65","32","1","2022-11-29 21:25:00","2df368f4e41f066fd1c82c297b4a1108","190.45.146.209","Mozilla/5.0 (Windows NT 10.0; Win64; x64) AppleWebKit/537.36 (KHTML, like Gecko) Chrome/107.0.0.0 Safari/537.36","WebKit","Chrome","107.0.0.0","Windows","10.0","","","41","",""
"4670","You drop a watch on the laptop <br> T&uacute tiras un reloj al port&aacutetil","{""Q0"":0}","trial","95630","survey-likert","108","1302072","0.0-5.0-0.66","32","1","2022-11-29 21:25:00","2df368f4e41f066fd1c82c297b4a1108","190.45.146.209","Mozilla/5.0 (Windows NT 10.0; Win64; x64) AppleWebKit/537.36 (KHTML, like Gecko) Chrome/107.0.0.0 Safari/537.36","WebKit","Chrome","107.0.0.0","Windows","10.0","[0]","","37","0",""
"5900","You drop a watch on the laptop <br> T&uacute tiras un reloj al port&aacutetil","{""Q0"":""Se te cae un reloj en el portátil""}","low_rate","95630","survey-text","109","1307981","0.0-5.0-1.66-0.66","32","1","2022-11-29 21:25:00","2df368f4e41f066fd1c82c297b4a1108","190.45.146.209","Mozilla/5.0 (Windows NT 10.0; Win64; x64) AppleWebKit/537.36 (KHTML, like Gecko) Chrome/107.0.0.0 Safari/537.36","WebKit","Chrome","107.0.0.0","Windows","10.0","","","37","",""
"7001","You see how a postman is driving a car <br> T&uacute ves como un cartero est&aacute conduciendo un coche","{""Q0"":3}","trial","95630","survey-likert","110","1314985","0.0-5.0-0.67","32","1","2022-11-29 21:25:00","2df368f4e41f066fd1c82c297b4a1108","190.45.146.209","Mozilla/5.0 (Windows NT 10.0; Win64; x64) AppleWebKit/537.36 (KHTML, like Gecko) Chrome/107.0.0.0 Safari/537.36","WebKit","Chrome","107.0.0.0","Windows","10.0","[0]","","32","3",""
"5021","You see how a president is writing in the notebook <br> T&uacute ves como un presidente est&aacute escribiendo en la libreta","{""Q0"":4}","trial","95630","survey-likert","111","1320014","0.0-5.0-0.68","32","1","2022-11-29 21:25:00","2df368f4e41f066fd1c82c297b4a1108","190.45.146.209","Mozilla/5.0 (Windows NT 10.0; Win64; x64) AppleWebKit/537.36 (KHTML, like Gecko) Chrome/107.0.0.0 Safari/537.36","WebKit","Chrome","107.0.0.0","Windows","10.0","[0]","","63","4",""
"4957","You see how a thief is stealing a wallet <br> T&uacute ves como un ladr&oacuten est&aacute robando una billetera","{""Q0"":3}","trial","95630","survey-likert","112","1324980","0.0-5.0-0.69","32","1","2022-11-29 21:25:00","2df368f4e41f066fd1c82c297b4a1108","190.45.146.209","Mozilla/5.0 (Windows NT 10.0; Win64; x64) AppleWebKit/537.36 (KHTML, like Gecko) Chrome/107.0.0.0 Safari/537.36","WebKit","Chrome","107.0.0.0","Windows","10.0","[0]","","68","3",""
"3239","You see how an old man is hammering a nail <br> T&uacute ves como un hombre anciano est&aacute martillando un clavo","{""Q0"":4}","trial","95630","survey-likert","113","1328227","0.0-5.0-0.70","32","1","2022-11-29 21:25:00","2df368f4e41f066fd1c82c297b4a1108","190.45.146.209","Mozilla/5.0 (Windows NT 10.0; Win64; x64) AppleWebKit/537.36 (KHTML, like Gecko) Chrome/107.0.0.0 Safari/537.36","WebKit","Chrome","107.0.0.0","Windows","10.0","[0]","","29","4",""
"4108","You drop a bowling ball on an iPhone <br> T&uacute tiras una bola de boliche a un iPhone","{""Q0"":0}","trial","95630","survey-likert","114","1332345","0.0-5.0-0.71","32","1","2022-11-29 21:25:00","2df368f4e41f066fd1c82c297b4a1108","190.45.146.209","Mozilla/5.0 (Windows NT 10.0; Win64; x64) AppleWebKit/537.36 (KHTML, like Gecko) Chrome/107.0.0.0 Safari/537.36","WebKit","Chrome","107.0.0.0","Windows","10.0","[0]","","13","0",""
"3292","You drop a bowling ball on an iPhone <br> T&uacute tiras una bola de boliche a un iPhone","{""Q0"":""Se te cae una bola de boliche en un iphone""}","low_rate","95630","survey-text","115","1335646","0.0-5.0-1.71-0.71","32","1","2022-11-29 21:25:00","2df368f4e41f066fd1c82c297b4a1108","190.45.146.209","Mozilla/5.0 (Windows NT 10.0; Win64; x64) AppleWebKit/537.36 (KHTML, like Gecko) Chrome/107.0.0.0 Safari/537.36","WebKit","Chrome","107.0.0.0","Windows","10.0","","","13","",""
"3592","
    <p style=""font-size:20px;""> You have completed the experiment portion! </p>
    <p style=""font-size:20px;""> Before you are done, we would like you to answer some basic demographic questions. </p>
    <p style=""font-size:20px;""> Note that your answers to these questions will not affect your compensation/credit. </p>
    <p style=""font-size:20px;""> Click the button below to continue.</p>
    ","0","demo","95630","html-button-response","116","1339242","0.0-6.0","32","1","2022-11-29 21:25:00","2df368f4e41f066fd1c82c297b4a1108","190.45.146.209","Mozilla/5.0 (Windows NT 10.0; Win64; x64) AppleWebKit/537.36 (KHTML, like Gecko) Chrome/107.0.0.0 Safari/537.36","WebKit","Chrome","107.0.0.0","Windows","10.0","","","","",""
"10387","","{""Age"":""30"",""Gender"":""female"",""Education"":""12 ""}","demo","95630","survey-text","117","1349640","0.0-7.0-0.0","32","1","2022-11-29 21:25:00","2df368f4e41f066fd1c82c297b4a1108","190.45.146.209","Mozilla/5.0 (Windows NT 10.0; Win64; x64) AppleWebKit/537.36 (KHTML, like Gecko) Chrome/107.0.0.0 Safari/537.36","WebKit","Chrome","107.0.0.0","Windows","10.0","","","","",""
"8572","","{""Race"":[""Other""]}","demo","95630","survey-multi-select","118","1358219","0.0-7.0-1.0","32","1","2022-11-29 21:25:00","2df368f4e41f066fd1c82c297b4a1108","190.45.146.209","Mozilla/5.0 (Windows NT 10.0; Win64; x64) AppleWebKit/537.36 (KHTML, like Gecko) Chrome/107.0.0.0 Safari/537.36","WebKit","Chrome","107.0.0.0","Windows","10.0","[0]","","","",""
"6492","","{""Latino"":""Yes"",""Alert"":""Evening""}","demo","95630","survey-multi-choice","119","1364718","0.0-7.0-2.0","32","1","2022-11-29 21:25:00","2df368f4e41f066fd1c82c297b4a1108","190.45.146.209","Mozilla/5.0 (Windows NT 10.0; Win64; x64) AppleWebKit/537.36 (KHTML, like Gecko) Chrome/107.0.0.0 Safari/537.36","WebKit","Chrome","107.0.0.0","Windows","10.0","[0,1]","","","",""
"2122","","{""Q0"":""""}","demo","95630","survey-text","120","1366849","0.0-7.0-3.0","32","1","2022-11-29 21:25:00","2df368f4e41f066fd1c82c297b4a1108","190.45.146.209","Mozilla/5.0 (Windows NT 10.0; Win64; x64) AppleWebKit/537.36 (KHTML, like Gecko) Chrome/107.0.0.0 Safari/537.36","WebKit","Chrome","107.0.0.0","Windows","10.0","","","","",""
"6346","<p>Thank you for participating! </p><strong>Your completion code is: CXEJB7NH. Please copy-paste this code and submit it on Prolific.</strong><p>Click <a href=""https://drive.google.com/file/d/1c70cdHFlc0AaR6RujLWLJwWkv1RbHQJY/view?usp=sharing"" target=""_blank"" rel=""noopener noreferrer"">here</a> to access the debriefing form and know more about our research. <p> Please click the button below to finish the experiment and save your data.</p> <p> IMPORTANT: Please <strong>do not leave this page </strong> without clicking the button below.</p> <p> You may close the tab/window after you click the button below.","0","","","html-button-response","121","1373198","0.0-8.0","32","1","2022-11-29 21:25:00","2df368f4e41f066fd1c82c297b4a1108","190.45.146.209","Mozilla/5.0 (Windows NT 10.0; Win64; x64) AppleWebKit/537.36 (KHTML, like Gecko) Chrome/107.0.0.0 Safari/537.36","WebKit","Chrome","107.0.0.0","Windows","10.0","","","","",""
