"rt","stimulus","response","typeoftrial","subject","trial_type","trial_index","time_elapsed","internal_node_id","run_id","condition","recorded_at","source_code_version","ip","user_agent","device","browser","browser_version","platform","platform_version","question_order","practice_rating","sentence_num","rating","Experiment"
"72768","
        <p style=""font-size:20px;""> Welcome! Thank you for your interest in our study. </p>
        <p style=""font-size:20px;""> This study is being conducted by researchers at Bowdoin College.</p>
        <p style=""font-size:20px;""> In this experiment, you will be asked to rate the accuracy of English and Spanish translations.</p>
        <p style=""font-size:20px;""> The entire experiment should not last more than 20 minutes. You will be paid $3 USD for your participation. </p>
        <p style=""font-size:20px;""> Please click <a href = ""https://drive.google.com/file/d/1L92a02eEKCpaAEipmqDcBCDR7rsarqFE/view?usp=sharing"" target = ""_blank"">here</a> to read the full consent form. </p>
        <p style=""font-size:20px;""> If you agree to participate, please click the button below to continue to experiment instructions.</p>
        ","0","consent","49214","html-button-response","0","72774","0.0-0.0","18","1","2022-11-29 21:24:46","2df368f4e41f066fd1c82c297b4a1108","187.222.98.55","Mozilla/5.0 (X11; Linux x86_64) AppleWebKit/537.36 (KHTML, like Gecko) Chrome/106.0.0.0 Safari/537.36","WebKit","Chrome","106.0.0.0","Linux","","","","","",""
"8301","","{""ID"":""5e9fdd5effe6a51855448d1b""}","ID","49214","survey-text","1","81106","0.0-1.0","18","1","2022-11-29 21:24:46","2df368f4e41f066fd1c82c297b4a1108","187.222.98.55","Mozilla/5.0 (X11; Linux x86_64) AppleWebKit/537.36 (KHTML, like Gecko) Chrome/106.0.0.0 Safari/537.36","WebKit","Chrome","106.0.0.0","Linux","","","","","",""
"14032","
        <p style=""font-size:20px;""> You are about to begin the practice test. </p>
        <p style=""font-size:20px;""> On each trial, you will see a sentence in English and its corresponding Spanish translation. </p>
        <p style=""font-size:20px;""> You will rate the accuracy of the translation on a scale from ""Not at all accurate"" to ""Very accurate."" </p>
        <p style=""font-size:20px;""> If you rate the translation as ""Somewhat innaccurate"" or ""Not at all accurate,"" you will be asked to provide your own translation or a reason why the translation is inaccurate. </p>
        <p style=""font-size:20px;""> Click the button below to continue to the practice session.</p>","0","instructions","49214","html-button-response","2","95140","0.0-2.0","18","1","2022-11-29 21:24:46","2df368f4e41f066fd1c82c297b4a1108","187.222.98.55","Mozilla/5.0 (X11; Linux x86_64) AppleWebKit/537.36 (KHTML, like Gecko) Chrome/106.0.0.0 Safari/537.36","WebKit","Chrome","106.0.0.0","Linux","","","","","",""
"38848","You drop a bowling ball on a mircrowave <br> T&uacute tiras una bola de boliche a un horno","{""Q0"":1}","practice","49214","survey-likert","3","133993","0.0-3.0-0.0","18","1","2022-11-29 21:24:46","2df368f4e41f066fd1c82c297b4a1108","187.222.98.55","Mozilla/5.0 (X11; Linux x86_64) AppleWebKit/537.36 (KHTML, like Gecko) Chrome/106.0.0.0 Safari/537.36","WebKit","Chrome","106.0.0.0","Linux","","[0]","1","","",""
"32719","You drop a bowling ball on a mircrowave <br> T&uacute tiras una bola de boliche a un horno","{""Q0"":""tu lanzas una bola de boliche al microondas""}","practice_low_rate","49214","survey-text","4","166724","0.0-3.0-1.0-0.0","18","1","2022-11-29 21:24:46","2df368f4e41f066fd1c82c297b4a1108","187.222.98.55","Mozilla/5.0 (X11; Linux x86_64) AppleWebKit/537.36 (KHTML, like Gecko) Chrome/106.0.0.0 Safari/537.36","WebKit","Chrome","106.0.0.0","Linux","","","","6","",""
"37376","You see how a tiger is playing with a goose <br> T&uacute ves como un le&oacuten come una pizza","{""Q0"":0}","practice","49214","survey-likert","5","204106","0.0-3.0-0.1","18","1","2022-11-29 21:24:46","2df368f4e41f066fd1c82c297b4a1108","187.222.98.55","Mozilla/5.0 (X11; Linux x86_64) AppleWebKit/537.36 (KHTML, like Gecko) Chrome/106.0.0.0 Safari/537.36","WebKit","Chrome","106.0.0.0","Linux","","[0]","0","","",""
"30783","You see how a tiger is playing with a goose <br> T&uacute ves como un le&oacuten come una pizza","{""Q0"":""tu ves como un león está jugando con un ganso""}","practice_low_rate","49214","survey-text","6","234899","0.0-3.0-1.1-0.1","18","1","2022-11-29 21:24:46","2df368f4e41f066fd1c82c297b4a1108","187.222.98.55","Mozilla/5.0 (X11; Linux x86_64) AppleWebKit/537.36 (KHTML, like Gecko) Chrome/106.0.0.0 Safari/537.36","WebKit","Chrome","106.0.0.0","Linux","","","","5","",""
"18485","You drop a rock on a phone <br> T&uacute tiras una piedra a un tel&eacutefono","{""Q0"":4}","practice","49214","survey-likert","7","253388","0.0-3.0-0.2","18","1","2022-11-29 21:24:46","2df368f4e41f066fd1c82c297b4a1108","187.222.98.55","Mozilla/5.0 (X11; Linux x86_64) AppleWebKit/537.36 (KHTML, like Gecko) Chrome/106.0.0.0 Safari/537.36","WebKit","Chrome","106.0.0.0","Linux","","[0]","4","","",""
"19409","You see how a teacher is drawing a picture <br> T&uacute ves como un maestro pinta una foto","{""Q0"":1}","practice","49214","survey-likert","8","272805","0.0-3.0-0.3","18","1","2022-11-29 21:24:46","2df368f4e41f066fd1c82c297b4a1108","187.222.98.55","Mozilla/5.0 (X11; Linux x86_64) AppleWebKit/537.36 (KHTML, like Gecko) Chrome/106.0.0.0 Safari/537.36","WebKit","Chrome","106.0.0.0","Linux","","[0]","1","","",""
"8861","You see how a teacher is drawing a picture <br> T&uacute ves como un maestro pinta una foto","{""Q0"":""pinta una imagen""}","practice_low_rate","49214","survey-text","9","281681","0.0-3.0-1.3-0.3","18","1","2022-11-29 21:24:46","2df368f4e41f066fd1c82c297b4a1108","187.222.98.55","Mozilla/5.0 (X11; Linux x86_64) AppleWebKit/537.36 (KHTML, like Gecko) Chrome/106.0.0.0 Safari/537.36","WebKit","Chrome","106.0.0.0","Linux","","","","4","",""
"11181","You see how an artist is running <br> T&uacute ves como un artista est&aacute corriendo","{""Q0"":4}","practice","49214","survey-likert","10","292867","0.0-3.0-0.4","18","1","2022-11-29 21:24:46","2df368f4e41f066fd1c82c297b4a1108","187.222.98.55","Mozilla/5.0 (X11; Linux x86_64) AppleWebKit/537.36 (KHTML, like Gecko) Chrome/106.0.0.0 Safari/537.36","WebKit","Chrome","106.0.0.0","Linux","","[0]","4","","",""
"12862","You see how a duck is playing with a pumpkin <br> T&uacute ves como un pato est&aacute jugando con una calabaza","{""Q0"":4}","practice","49214","survey-likert","11","305738","0.0-3.0-0.5","18","1","2022-11-29 21:24:46","2df368f4e41f066fd1c82c297b4a1108","187.222.98.55","Mozilla/5.0 (X11; Linux x86_64) AppleWebKit/537.36 (KHTML, like Gecko) Chrome/106.0.0.0 Safari/537.36","WebKit","Chrome","106.0.0.0","Linux","","[0]","4","","",""
"2820","<p style=""font-size:20px;"">You have now completed the practice session! </p>
        <p style=""font-size:20px;"">You will now move on to the main experiment. </p>
        <p style=""font-size:20px;"">Please click the button below to continue. </p>","0","movetoexp","49214","html-button-response","12","308567","0.0-4.0","18","1","2022-11-29 21:24:46","2df368f4e41f066fd1c82c297b4a1108","187.222.98.55","Mozilla/5.0 (X11; Linux x86_64) AppleWebKit/537.36 (KHTML, like Gecko) Chrome/106.0.0.0 Safari/537.36","WebKit","Chrome","106.0.0.0","Linux","","","","","",""
"6351","You see how a pilot is reading a book <br> T&uacute ves como un piloto est&aacute leyendo un libro","{""Q0"":4}","trial","49214","survey-likert","13","314921","0.0-5.0-0.0","18","1","2022-11-29 21:24:46","2df368f4e41f066fd1c82c297b4a1108","187.222.98.55","Mozilla/5.0 (X11; Linux x86_64) AppleWebKit/537.36 (KHTML, like Gecko) Chrome/106.0.0.0 Safari/537.36","WebKit","Chrome","106.0.0.0","Linux","","[0]","","61","4",""
"4847","You drop a bowling ball on an iPhone <br> T&uacute tiras una bola de boliche a un iPhone","{""Q0"":4}","trial","49214","survey-likert","14","319777","0.0-5.0-0.1","18","1","2022-11-29 21:24:46","2df368f4e41f066fd1c82c297b4a1108","187.222.98.55","Mozilla/5.0 (X11; Linux x86_64) AppleWebKit/537.36 (KHTML, like Gecko) Chrome/106.0.0.0 Safari/537.36","WebKit","Chrome","106.0.0.0","Linux","","[0]","","13","4",""
"6000","You see how a kitten is playing in the sandbox <br> T&uacute ves como un gatito est&aacute jugando en la caja de arena","{""Q0"":4}","trial","49214","survey-likert","15","325787","0.0-5.0-0.2","18","1","2022-11-29 21:24:46","2df368f4e41f066fd1c82c297b4a1108","187.222.98.55","Mozilla/5.0 (X11; Linux x86_64) AppleWebKit/537.36 (KHTML, like Gecko) Chrome/106.0.0.0 Safari/537.36","WebKit","Chrome","106.0.0.0","Linux","","[0]","","52","4",""
"6273","You see how a parrot is eating an apple <br> T&uacute ves como un loro est&aacute comiendo una manzana","{""Q0"":4}","trial","49214","survey-likert","16","332067","0.0-5.0-0.3","18","1","2022-11-29 21:24:46","2df368f4e41f066fd1c82c297b4a1108","187.222.98.55","Mozilla/5.0 (X11; Linux x86_64) AppleWebKit/537.36 (KHTML, like Gecko) Chrome/106.0.0.0 Safari/537.36","WebKit","Chrome","106.0.0.0","Linux","","[0]","","58","4",""
"14627","You drop a bowling ball on an egg flan <br> T&uacute tiras una bola de boliche a un flan","{""Q0"":3}","trial","49214","survey-likert","17","346702","0.0-5.0-0.4","18","1","2022-11-29 21:24:46","2df368f4e41f066fd1c82c297b4a1108","187.222.98.55","Mozilla/5.0 (X11; Linux x86_64) AppleWebKit/537.36 (KHTML, like Gecko) Chrome/106.0.0.0 Safari/537.36","WebKit","Chrome","106.0.0.0","Linux","","[0]","","7","3",""
"7379","You drop a bowling ball on an egg <br> T&uacute tiras una bola de boliche a un huevo","{""Q0"":3}","trial","49214","survey-likert","18","354091","0.0-5.0-0.5","18","1","2022-11-29 21:24:46","2df368f4e41f066fd1c82c297b4a1108","187.222.98.55","Mozilla/5.0 (X11; Linux x86_64) AppleWebKit/537.36 (KHTML, like Gecko) Chrome/106.0.0.0 Safari/537.36","WebKit","Chrome","106.0.0.0","Linux","","[0]","","6","3",""
"10631","You see how a nurse is taking a syringe <br> T&uacute ves como una enfermera est&aacute agarrando una jeringuilla","{""Q0"":3}","trial","49214","survey-likert","19","364729","0.0-5.0-0.6","18","1","2022-11-29 21:24:46","2df368f4e41f066fd1c82c297b4a1108","187.222.98.55","Mozilla/5.0 (X11; Linux x86_64) AppleWebKit/537.36 (KHTML, like Gecko) Chrome/106.0.0.0 Safari/537.36","WebKit","Chrome","106.0.0.0","Linux","","[0]","","48","3",""
"7380","You see how a thief is stealing a wallet <br> T&uacute ves como un ladr&oacuten est&aacute robando una billetera","{""Q0"":4}","trial","49214","survey-likert","20","372117","0.0-5.0-0.7","18","1","2022-11-29 21:24:46","2df368f4e41f066fd1c82c297b4a1108","187.222.98.55","Mozilla/5.0 (X11; Linux x86_64) AppleWebKit/537.36 (KHTML, like Gecko) Chrome/106.0.0.0 Safari/537.36","WebKit","Chrome","106.0.0.0","Linux","","[0]","","68","4",""
"9168","You drop a bowling ball on a chocolate ice-cream <br> T&uacute tiras una bola de boliche a un helado de chocolate","{""Q0"":4}","trial","49214","survey-likert","21","381295","0.0-5.0-0.8","18","1","2022-11-29 21:24:46","2df368f4e41f066fd1c82c297b4a1108","187.222.98.55","Mozilla/5.0 (X11; Linux x86_64) AppleWebKit/537.36 (KHTML, like Gecko) Chrome/106.0.0.0 Safari/537.36","WebKit","Chrome","106.0.0.0","Linux","","[0]","","11","4",""
"13483","You drop a bowling ball on a mirror <br> T&uacute tiras una bola de boliche a un espejo","{""Q0"":4}","trial","49214","survey-likert","22","394788","0.0-5.0-0.9","18","1","2022-11-29 21:24:46","2df368f4e41f066fd1c82c297b4a1108","187.222.98.55","Mozilla/5.0 (X11; Linux x86_64) AppleWebKit/537.36 (KHTML, like Gecko) Chrome/106.0.0.0 Safari/537.36","WebKit","Chrome","106.0.0.0","Linux","","[0]","","15","4",""
"7703","You see how a man is shaving his beard <br> T&uacute ves como un hombre se est&aacute afeitando la barba","{""Q0"":4}","trial","49214","survey-likert","23","402500","0.0-5.0-0.10","18","1","2022-11-29 21:24:46","2df368f4e41f066fd1c82c297b4a1108","187.222.98.55","Mozilla/5.0 (X11; Linux x86_64) AppleWebKit/537.36 (KHTML, like Gecko) Chrome/106.0.0.0 Safari/537.36","WebKit","Chrome","106.0.0.0","Linux","","[0]","","43","4",""
"6661","You see how a zebra is playing with a horse <br> T&uacute ves como una cebra est&aacute jugando con un caballo","{""Q0"":4}","trial","49214","survey-likert","24","409168","0.0-5.0-0.11","18","1","2022-11-29 21:24:46","2df368f4e41f066fd1c82c297b4a1108","187.222.98.55","Mozilla/5.0 (X11; Linux x86_64) AppleWebKit/537.36 (KHTML, like Gecko) Chrome/106.0.0.0 Safari/537.36","WebKit","Chrome","106.0.0.0","Linux","","[0]","","66","4",""
"10253","You see how a student is writing on a board <br> T&uacute ves como un estudiante est&aacute escribiendo en la pizarra","{""Q0"":4}","trial","49214","survey-likert","25","419430","0.0-5.0-0.12","18","1","2022-11-29 21:24:46","2df368f4e41f066fd1c82c297b4a1108","187.222.98.55","Mozilla/5.0 (X11; Linux x86_64) AppleWebKit/537.36 (KHTML, like Gecko) Chrome/106.0.0.0 Safari/537.36","WebKit","Chrome","106.0.0.0","Linux","","[0]","","50","4",""
"5188","You see how an astronaut is putting on a space suit <br> T&uacute ves como un astronauta se est&aacute poniendo su traje espacial","{""Q0"":4}","trial","49214","survey-likert","26","424627","0.0-5.0-0.13","18","1","2022-11-29 21:24:46","2df368f4e41f066fd1c82c297b4a1108","187.222.98.55","Mozilla/5.0 (X11; Linux x86_64) AppleWebKit/537.36 (KHTML, like Gecko) Chrome/106.0.0.0 Safari/537.36","WebKit","Chrome","106.0.0.0","Linux","","[0]","","33","4",""
"7702","You drop a bowling ball on an empty can of beer <br> T&uacute tiras una bola de boliche a una lata de cerveza vac&iacutea","{""Q0"":4}","trial","49214","survey-likert","27","432337","0.0-5.0-0.14","18","1","2022-11-29 21:24:46","2df368f4e41f066fd1c82c297b4a1108","187.222.98.55","Mozilla/5.0 (X11; Linux x86_64) AppleWebKit/537.36 (KHTML, like Gecko) Chrome/106.0.0.0 Safari/537.36","WebKit","Chrome","106.0.0.0","Linux","","[0]","","3","4",""
"31877","You see how a hairdresser is taking scissors <br> T&uacute ves como una peluquera est&aacute agarrando las tijeras","{""Q0"":3}","trial","49214","survey-likert","28","464226","0.0-5.0-0.15","18","1","2022-11-29 21:24:46","2df368f4e41f066fd1c82c297b4a1108","187.222.98.55","Mozilla/5.0 (X11; Linux x86_64) AppleWebKit/537.36 (KHTML, like Gecko) Chrome/106.0.0.0 Safari/537.36","WebKit","Chrome","106.0.0.0","Linux","","[0]","","60","3",""
"8481","You drop a ring on the newspaper <br> T&uacute tiras un anillo al peri&oacutedico","{""Q0"":3}","trial","49214","survey-likert","29","472716","0.0-5.0-0.16","18","1","2022-11-29 21:24:46","2df368f4e41f066fd1c82c297b4a1108","187.222.98.55","Mozilla/5.0 (X11; Linux x86_64) AppleWebKit/537.36 (KHTML, like Gecko) Chrome/106.0.0.0 Safari/537.36","WebKit","Chrome","106.0.0.0","Linux","","[0]","","41","3",""
"7925","You see how a photographer is taking a photo of a lion <br> T&uacute ves como un fot&oacutegrafo est&aacute tomando una foto de un le&oacuten","{""Q0"":4}","trial","49214","survey-likert","30","480650","0.0-5.0-0.17","18","1","2022-11-29 21:24:46","2df368f4e41f066fd1c82c297b4a1108","187.222.98.55","Mozilla/5.0 (X11; Linux x86_64) AppleWebKit/537.36 (KHTML, like Gecko) Chrome/106.0.0.0 Safari/537.36","WebKit","Chrome","106.0.0.0","Linux","","[0]","","72","4",""
"6441","You drop a bowling ball on a ceramic plate <br> T&uacute tiras una bola de boliche a un plato de cer&aacutemica","{""Q0"":4}","trial","49214","survey-likert","31","487101","0.0-5.0-0.18","18","1","2022-11-29 21:24:46","2df368f4e41f066fd1c82c297b4a1108","187.222.98.55","Mozilla/5.0 (X11; Linux x86_64) AppleWebKit/537.36 (KHTML, like Gecko) Chrome/106.0.0.0 Safari/537.36","WebKit","Chrome","106.0.0.0","Linux","","[0]","","19","4",""
"6426","You see how a giraffe is playing with a zebra <br> T&uacute ves como una jirafa est&aacute jugando con una cebra","{""Q0"":4}","trial","49214","survey-likert","32","493536","0.0-5.0-0.19","18","1","2022-11-29 21:24:46","2df368f4e41f066fd1c82c297b4a1108","187.222.98.55","Mozilla/5.0 (X11; Linux x86_64) AppleWebKit/537.36 (KHTML, like Gecko) Chrome/106.0.0.0 Safari/537.36","WebKit","Chrome","106.0.0.0","Linux","","[0]","","65","4",""
"5465","You drop a bowling ball on a strawberry <br> T&uacute tiras una bola de boliche a una fresa","{""Q0"":4}","trial","49214","survey-likert","33","499011","0.0-5.0-0.20","18","1","2022-11-29 21:24:46","2df368f4e41f066fd1c82c297b4a1108","187.222.98.55","Mozilla/5.0 (X11; Linux x86_64) AppleWebKit/537.36 (KHTML, like Gecko) Chrome/106.0.0.0 Safari/537.36","WebKit","Chrome","106.0.0.0","Linux","","[0]","","20","4",""
"8680","You drop a bowling ball on a donut <br> T&uacute tiras una bola de boliche a una rosquilla","{""Q0"":4}","trial","49214","survey-likert","34","507701","0.0-5.0-0.21","18","1","2022-11-29 21:24:46","2df368f4e41f066fd1c82c297b4a1108","187.222.98.55","Mozilla/5.0 (X11; Linux x86_64) AppleWebKit/537.36 (KHTML, like Gecko) Chrome/106.0.0.0 Safari/537.36","WebKit","Chrome","106.0.0.0","Linux","","[0]","","17","4",""
"10798","You see how a man is playing with a cat <br> T&uacute ves como un hombre est&aacute jugando con un gato","{""Q0"":4}","trial","49214","survey-likert","35","518509","0.0-5.0-0.22","18","1","2022-11-29 21:24:46","2df368f4e41f066fd1c82c297b4a1108","187.222.98.55","Mozilla/5.0 (X11; Linux x86_64) AppleWebKit/537.36 (KHTML, like Gecko) Chrome/106.0.0.0 Safari/537.36","WebKit","Chrome","106.0.0.0","Linux","","[0]","","67","4",""
"11367","You see how an actress is taking a microphone <br> T&uacute ves como una actriz est&aacute agarrando el micr&oacutefono","{""Q0"":3}","trial","49214","survey-likert","36","529887","0.0-5.0-0.23","18","1","2022-11-29 21:24:46","2df368f4e41f066fd1c82c297b4a1108","187.222.98.55","Mozilla/5.0 (X11; Linux x86_64) AppleWebKit/537.36 (KHTML, like Gecko) Chrome/106.0.0.0 Safari/537.36","WebKit","Chrome","106.0.0.0","Linux","","[0]","","51","3",""
"9162","You see how a police officer is talking on the phone <br> T&uacute ves como un polic&iacutea est&aacute hablando por el tel&eacutefono","{""Q0"":2}","trial","49214","survey-likert","37","539058","0.0-5.0-0.24","18","1","2022-11-29 21:24:46","2df368f4e41f066fd1c82c297b4a1108","187.222.98.55","Mozilla/5.0 (X11; Linux x86_64) AppleWebKit/537.36 (KHTML, like Gecko) Chrome/106.0.0.0 Safari/537.36","WebKit","Chrome","106.0.0.0","Linux","","[0]","","62","2",""
"8313","You drop a bowling ball on a rice cake <br> T&uacute tiras una bola de boliche a una tortita de arroz","{""Q0"":3}","trial","49214","survey-likert","38","547380","0.0-5.0-0.25","18","1","2022-11-29 21:24:46","2df368f4e41f066fd1c82c297b4a1108","187.222.98.55","Mozilla/5.0 (X11; Linux x86_64) AppleWebKit/537.36 (KHTML, like Gecko) Chrome/106.0.0.0 Safari/537.36","WebKit","Chrome","106.0.0.0","Linux","","[0]","","18","3",""
"6438","You drop a cabbage on the table <br> T&uacute tiras una col a la mesa","{""Q0"":3}","trial","49214","survey-likert","39","553829","0.0-5.0-0.26","18","1","2022-11-29 21:24:46","2df368f4e41f066fd1c82c297b4a1108","187.222.98.55","Mozilla/5.0 (X11; Linux x86_64) AppleWebKit/537.36 (KHTML, like Gecko) Chrome/106.0.0.0 Safari/537.36","WebKit","Chrome","106.0.0.0","Linux","","[0]","","35","3",""
"7939","You drop a bowling ball on a porcelain figure <br> T&uacute tiras una bola de boliche a una figura de porcelana","{""Q0"":3}","trial","49214","survey-likert","40","561779","0.0-5.0-0.27","18","1","2022-11-29 21:24:46","2df368f4e41f066fd1c82c297b4a1108","187.222.98.55","Mozilla/5.0 (X11; Linux x86_64) AppleWebKit/537.36 (KHTML, like Gecko) Chrome/106.0.0.0 Safari/537.36","WebKit","Chrome","106.0.0.0","Linux","","[0]","","1","3",""
"5273","You see how an elephant is eating a watermelon <br> T&uacute ves como un elefante est&aacute comiendo una sand&iacutea","{""Q0"":4}","trial","49214","survey-likert","41","567062","0.0-5.0-0.28","18","1","2022-11-29 21:24:46","2df368f4e41f066fd1c82c297b4a1108","187.222.98.55","Mozilla/5.0 (X11; Linux x86_64) AppleWebKit/537.36 (KHTML, like Gecko) Chrome/106.0.0.0 Safari/537.36","WebKit","Chrome","106.0.0.0","Linux","","[0]","","31","4",""
"16719","You drop a bowling ball on a hat <br> T&uacute tiras una bola de boliche a una gorra","{""Q0"":0}","trial","49214","survey-likert","42","583789","0.0-5.0-0.29","18","1","2022-11-29 21:24:46","2df368f4e41f066fd1c82c297b4a1108","187.222.98.55","Mozilla/5.0 (X11; Linux x86_64) AppleWebKit/537.36 (KHTML, like Gecko) Chrome/106.0.0.0 Safari/537.36","WebKit","Chrome","106.0.0.0","Linux","","[0]","","10","0",""
"8814","You drop a bowling ball on a hat <br> T&uacute tiras una bola de boliche a una gorra","{""Q0"":""tu lanzas una bola de boliche a un sombrero""}","low_rate","49214","survey-text","43","592614","0.0-5.0-1.29-0.29","18","1","2022-11-29 21:24:46","2df368f4e41f066fd1c82c297b4a1108","187.222.98.55","Mozilla/5.0 (X11; Linux x86_64) AppleWebKit/537.36 (KHTML, like Gecko) Chrome/106.0.0.0 Safari/537.36","WebKit","Chrome","106.0.0.0","Linux","","","","10","",""
"7441","You drop a cushion on the magazine <br> T&uacute tiras un coj&iacuten a la revista","{""Q0"":3}","trial","49214","survey-likert","44","600062","0.0-5.0-0.30","18","1","2022-11-29 21:24:46","2df368f4e41f066fd1c82c297b4a1108","187.222.98.55","Mozilla/5.0 (X11; Linux x86_64) AppleWebKit/537.36 (KHTML, like Gecko) Chrome/106.0.0.0 Safari/537.36","WebKit","Chrome","106.0.0.0","Linux","","[0]","","38","3",""
"7960","You drop a bowling ball on a piece of sushi <br> T&uacute tiras una bola de boliche a un pedazo de sushi","{""Q0"":4}","trial","49214","survey-likert","45","608033","0.0-5.0-0.31","18","1","2022-11-29 21:24:46","2df368f4e41f066fd1c82c297b4a1108","187.222.98.55","Mozilla/5.0 (X11; Linux x86_64) AppleWebKit/537.36 (KHTML, like Gecko) Chrome/106.0.0.0 Safari/537.36","WebKit","Chrome","106.0.0.0","Linux","","[0]","","21","4",""
"8907","You see how an old man is hammering a nail <br> T&uacute ves como un hombre anciano est&aacute martillando un clavo","{""Q0"":3}","trial","49214","survey-likert","46","616953","0.0-5.0-0.32","18","1","2022-11-29 21:24:46","2df368f4e41f066fd1c82c297b4a1108","187.222.98.55","Mozilla/5.0 (X11; Linux x86_64) AppleWebKit/537.36 (KHTML, like Gecko) Chrome/106.0.0.0 Safari/537.36","WebKit","Chrome","106.0.0.0","Linux","","[0]","","29","3",""
"5821","You drop a keyboard on the bed <br> T&uacute tiras un teclado a la cama","{""Q0"":4}","trial","49214","survey-likert","47","622784","0.0-5.0-0.33","18","1","2022-11-29 21:24:46","2df368f4e41f066fd1c82c297b4a1108","187.222.98.55","Mozilla/5.0 (X11; Linux x86_64) AppleWebKit/537.36 (KHTML, like Gecko) Chrome/106.0.0.0 Safari/537.36","WebKit","Chrome","106.0.0.0","Linux","","[0]","","36","4",""
"5500","You see how a musician is playing a guitar <br> T&uacute ves como un m&uacutesico est&aacute tocando la guitarra","{""Q0"":4}","trial","49214","survey-likert","48","628295","0.0-5.0-0.34","18","1","2022-11-29 21:24:46","2df368f4e41f066fd1c82c297b4a1108","187.222.98.55","Mozilla/5.0 (X11; Linux x86_64) AppleWebKit/537.36 (KHTML, like Gecko) Chrome/106.0.0.0 Safari/537.36","WebKit","Chrome","106.0.0.0","Linux","","[0]","","27","4",""
"6462","You see how a mouse is eating cheese <br> T&uacute ves como el rat&oacuten est&aacute comiendo queso","{""Q0"":4}","trial","49214","survey-likert","49","634769","0.0-5.0-0.35","18","1","2022-11-29 21:24:46","2df368f4e41f066fd1c82c297b4a1108","187.222.98.55","Mozilla/5.0 (X11; Linux x86_64) AppleWebKit/537.36 (KHTML, like Gecko) Chrome/106.0.0.0 Safari/537.36","WebKit","Chrome","106.0.0.0","Linux","","[0]","","56","4",""
"7271","You drop a toothbrush on the sponge <br> T&uacute tiras un cepillo de dientes en la esponja","{""Q0"":4}","trial","49214","survey-likert","50","642050","0.0-5.0-0.36","18","1","2022-11-29 21:24:46","2df368f4e41f066fd1c82c297b4a1108","187.222.98.55","Mozilla/5.0 (X11; Linux x86_64) AppleWebKit/537.36 (KHTML, like Gecko) Chrome/106.0.0.0 Safari/537.36","WebKit","Chrome","106.0.0.0","Linux","","[0]","","25","4",""
"3920","You drop a towel on the TV <br> T&uacute tiras una toalla a la televisi&oacuten","{""Q0"":4}","trial","49214","survey-likert","51","645980","0.0-5.0-0.37","18","1","2022-11-29 21:24:46","2df368f4e41f066fd1c82c297b4a1108","187.222.98.55","Mozilla/5.0 (X11; Linux x86_64) AppleWebKit/537.36 (KHTML, like Gecko) Chrome/106.0.0.0 Safari/537.36","WebKit","Chrome","106.0.0.0","Linux","","[0]","","53","4",""
"5625","You see how a man is boiling potatoes <br> T&uacute ves a un hombre est&aacute hirviendo papas","{""Q0"":4}","trial","49214","survey-likert","52","651614","0.0-5.0-0.38","18","1","2022-11-29 21:24:46","2df368f4e41f066fd1c82c297b4a1108","187.222.98.55","Mozilla/5.0 (X11; Linux x86_64) AppleWebKit/537.36 (KHTML, like Gecko) Chrome/106.0.0.0 Safari/537.36","WebKit","Chrome","106.0.0.0","Linux","","[0]","","46","4",""
"10721","You drop a bowling ball on glasses <br> T&uacute tiras una bola de boliche a unas gafas","{""Q0"":4}","trial","49214","survey-likert","53","662347","0.0-5.0-0.39","18","1","2022-11-29 21:24:46","2df368f4e41f066fd1c82c297b4a1108","187.222.98.55","Mozilla/5.0 (X11; Linux x86_64) AppleWebKit/537.36 (KHTML, like Gecko) Chrome/106.0.0.0 Safari/537.36","WebKit","Chrome","106.0.0.0","Linux","","[0]","","9","4",""
"11968","You drop a bowling ball on a chocolate muffin <br> T&uacute tiras una bola de boliche a una magdalena de chocolate","{""Q0"":3}","trial","49214","survey-likert","54","674325","0.0-5.0-0.40","18","1","2022-11-29 21:24:46","2df368f4e41f066fd1c82c297b4a1108","187.222.98.55","Mozilla/5.0 (X11; Linux x86_64) AppleWebKit/537.36 (KHTML, like Gecko) Chrome/106.0.0.0 Safari/537.36","WebKit","Chrome","106.0.0.0","Linux","","[0]","","16","3",""
"7271","You drop a thermometer on the box <br> T&uacute tiras un term&oacutemetro a la caja","{""Q0"":4}","trial","49214","survey-likert","55","681609","0.0-5.0-0.41","18","1","2022-11-29 21:24:46","2df368f4e41f066fd1c82c297b4a1108","187.222.98.55","Mozilla/5.0 (X11; Linux x86_64) AppleWebKit/537.36 (KHTML, like Gecko) Chrome/106.0.0.0 Safari/537.36","WebKit","Chrome","106.0.0.0","Linux","","[0]","","70","4",""
"8720","You drop a bowling ball on a tomato <br> T&uacute tiras una bola de boliche a un tomate","{""Q0"":4}","trial","49214","survey-likert","56","690339","0.0-5.0-0.42","18","1","2022-11-29 21:24:46","2df368f4e41f066fd1c82c297b4a1108","187.222.98.55","Mozilla/5.0 (X11; Linux x86_64) AppleWebKit/537.36 (KHTML, like Gecko) Chrome/106.0.0.0 Safari/537.36","WebKit","Chrome","106.0.0.0","Linux","","[0]","","23","4",""
"7670","You see how a teenage girl is playing the piano <br> T&uacute ves como una ni&ntildea adolescente est&aacute tocando el piano","{""Q0"":4}","trial","49214","survey-likert","57","698020","0.0-5.0-0.43","18","1","2022-11-29 21:24:46","2df368f4e41f066fd1c82c297b4a1108","187.222.98.55","Mozilla/5.0 (X11; Linux x86_64) AppleWebKit/537.36 (KHTML, like Gecko) Chrome/106.0.0.0 Safari/537.36","WebKit","Chrome","106.0.0.0","Linux","","[0]","","54","4",""
"13055","You drop a remote on the rug <br> T&uacute tiras un control remoto a la alfombra","{""Q0"":4}","trial","49214","survey-likert","58","711085","0.0-5.0-0.44","18","1","2022-11-29 21:24:46","2df368f4e41f066fd1c82c297b4a1108","187.222.98.55","Mozilla/5.0 (X11; Linux x86_64) AppleWebKit/537.36 (KHTML, like Gecko) Chrome/106.0.0.0 Safari/537.36","WebKit","Chrome","106.0.0.0","Linux","","[0]","","39","4",""
"9849","You drop a bowling ball on a light bulb <br> T&uacute tiras una bola de boliche a una bombilla","{""Q0"":4}","trial","49214","survey-likert","59","720947","0.0-5.0-0.45","18","1","2022-11-29 21:24:46","2df368f4e41f066fd1c82c297b4a1108","187.222.98.55","Mozilla/5.0 (X11; Linux x86_64) AppleWebKit/537.36 (KHTML, like Gecko) Chrome/106.0.0.0 Safari/537.36","WebKit","Chrome","106.0.0.0","Linux","","[0]","","14","4",""
"8474","You see how a woman is paying with a debit card <br> T&uacute ves como una mujer est&aacute pagando con una tarjeta de d&eacutebito","{""Q0"":4}","trial","49214","survey-likert","60","729432","0.0-5.0-0.46","18","1","2022-11-29 21:24:46","2df368f4e41f066fd1c82c297b4a1108","187.222.98.55","Mozilla/5.0 (X11; Linux x86_64) AppleWebKit/537.36 (KHTML, like Gecko) Chrome/106.0.0.0 Safari/537.36","WebKit","Chrome","106.0.0.0","Linux","","[0]","","64","4",""
"7398","You see how a cook is taking a knife <br> T&uacute ves como un cocinero est&aacute agarrando un cuchillo","{""Q0"":4}","trial","49214","survey-likert","61","736842","0.0-5.0-0.47","18","1","2022-11-29 21:24:46","2df368f4e41f066fd1c82c297b4a1108","187.222.98.55","Mozilla/5.0 (X11; Linux x86_64) AppleWebKit/537.36 (KHTML, like Gecko) Chrome/106.0.0.0 Safari/537.36","WebKit","Chrome","106.0.0.0","Linux","","[0]","","71","4",""
"4723","You drop a fork on the plate <br> T&uacute tiras un tenedor al plato","{""Q0"":4}","trial","49214","survey-likert","62","741576","0.0-5.0-0.48","18","1","2022-11-29 21:24:46","2df368f4e41f066fd1c82c297b4a1108","187.222.98.55","Mozilla/5.0 (X11; Linux x86_64) AppleWebKit/537.36 (KHTML, like Gecko) Chrome/106.0.0.0 Safari/537.36","WebKit","Chrome","106.0.0.0","Linux","","[0]","","26","4",""
"5678","You see how a boy is peeling a banana <br> T&uacute ves como un ni&ntildeo est&aacute pelando una banana","{""Q0"":4}","trial","49214","survey-likert","63","747265","0.0-5.0-0.49","18","1","2022-11-29 21:24:46","2df368f4e41f066fd1c82c297b4a1108","187.222.98.55","Mozilla/5.0 (X11; Linux x86_64) AppleWebKit/537.36 (KHTML, like Gecko) Chrome/106.0.0.0 Safari/537.36","WebKit","Chrome","106.0.0.0","Linux","","[0]","","30","4",""
"5578","You drop a bowling ball on an iPAD <br> T&uacute tiras una bola de boliche a un iPad","{""Q0"":4}","trial","49214","survey-likert","64","752854","0.0-5.0-0.50","18","1","2022-11-29 21:24:46","2df368f4e41f066fd1c82c297b4a1108","187.222.98.55","Mozilla/5.0 (X11; Linux x86_64) AppleWebKit/537.36 (KHTML, like Gecko) Chrome/106.0.0.0 Safari/537.36","WebKit","Chrome","106.0.0.0","Linux","","[0]","","12","4",""
"4082","You see how a horse is chewing hay <br> T&uacute ves como un caballo est&aacute masticando el heno","{""Q0"":4}","trial","49214","survey-likert","65","756947","0.0-5.0-0.51","18","1","2022-11-29 21:24:46","2df368f4e41f066fd1c82c297b4a1108","187.222.98.55","Mozilla/5.0 (X11; Linux x86_64) AppleWebKit/537.36 (KHTML, like Gecko) Chrome/106.0.0.0 Safari/537.36","WebKit","Chrome","106.0.0.0","Linux","","[0]","","55","4",""
"5821","You see how a cat is drinking water from a bowl <br> T&uacute ves como un gato est&aacute bebiendo agua de un cuenco","{""Q0"":3}","trial","49214","survey-likert","66","762778","0.0-5.0-0.52","18","1","2022-11-29 21:24:46","2df368f4e41f066fd1c82c297b4a1108","187.222.98.55","Mozilla/5.0 (X11; Linux x86_64) AppleWebKit/537.36 (KHTML, like Gecko) Chrome/106.0.0.0 Safari/537.36","WebKit","Chrome","106.0.0.0","Linux","","[0]","","28","3",""
"8192","You see how a dentist is drinking a can of cola <br> T&uacute ves como un dentista est&aacute bebiendo una lata de cola","{""Q0"":3}","trial","49214","survey-likert","67","770980","0.0-5.0-0.53","18","1","2022-11-29 21:24:46","2df368f4e41f066fd1c82c297b4a1108","187.222.98.55","Mozilla/5.0 (X11; Linux x86_64) AppleWebKit/537.36 (KHTML, like Gecko) Chrome/106.0.0.0 Safari/537.36","WebKit","Chrome","106.0.0.0","Linux","","[0]","","47","3",""
"6330","You drop a bowling ball on a wine glass <br> T&uacute tiras una bola de boliche a una copa de vino","{""Q0"":3}","trial","49214","survey-likert","68","777320","0.0-5.0-0.54","18","1","2022-11-29 21:24:46","2df368f4e41f066fd1c82c297b4a1108","187.222.98.55","Mozilla/5.0 (X11; Linux x86_64) AppleWebKit/537.36 (KHTML, like Gecko) Chrome/106.0.0.0 Safari/537.36","WebKit","Chrome","106.0.0.0","Linux","","[0]","","5","3",""
"8641","You see how a postman is driving a car <br> T&uacute ves como un cartero est&aacute conduciendo un coche","{""Q0"":4}","trial","49214","survey-likert","69","785975","0.0-5.0-0.55","18","1","2022-11-29 21:24:46","2df368f4e41f066fd1c82c297b4a1108","187.222.98.55","Mozilla/5.0 (X11; Linux x86_64) AppleWebKit/537.36 (KHTML, like Gecko) Chrome/106.0.0.0 Safari/537.36","WebKit","Chrome","106.0.0.0","Linux","","[0]","","32","4",""
"8502","You drop a bowling ball on a tile <br> T&uacute tiras una bola de boliche a una baldosa","{""Q0"":3}","trial","49214","survey-likert","70","794486","0.0-5.0-0.56","18","1","2022-11-29 21:24:46","2df368f4e41f066fd1c82c297b4a1108","187.222.98.55","Mozilla/5.0 (X11; Linux x86_64) AppleWebKit/537.36 (KHTML, like Gecko) Chrome/106.0.0.0 Safari/537.36","WebKit","Chrome","106.0.0.0","Linux","","[0]","","22","3",""
"16532","You drop a bowling ball on a blackberry <br> T&uacute tiras una bola de boliche a una mora","{""Q0"":4}","trial","49214","survey-likert","71","811029","0.0-5.0-0.57","18","1","2022-11-29 21:24:46","2df368f4e41f066fd1c82c297b4a1108","187.222.98.55","Mozilla/5.0 (X11; Linux x86_64) AppleWebKit/537.36 (KHTML, like Gecko) Chrome/106.0.0.0 Safari/537.36","WebKit","Chrome","106.0.0.0","Linux","","[0]","","8","4",""
"8175","You see how a puppy is playing with a ball <br> T&uacute ves como un cachorro est&aacute jugando con una pelota","{""Q0"":4}","trial","49214","survey-likert","72","819214","0.0-5.0-0.58","18","1","2022-11-29 21:24:46","2df368f4e41f066fd1c82c297b4a1108","187.222.98.55","Mozilla/5.0 (X11; Linux x86_64) AppleWebKit/537.36 (KHTML, like Gecko) Chrome/106.0.0.0 Safari/537.36","WebKit","Chrome","106.0.0.0","Linux","","[0]","","34","4",""
"8129","You see how a president is writing in the notebook <br> T&uacute ves como un presidente est&aacute escribiendo en la libreta","{""Q0"":4}","trial","49214","survey-likert","73","827353","0.0-5.0-0.59","18","1","2022-11-29 21:24:46","2df368f4e41f066fd1c82c297b4a1108","187.222.98.55","Mozilla/5.0 (X11; Linux x86_64) AppleWebKit/537.36 (KHTML, like Gecko) Chrome/106.0.0.0 Safari/537.36","WebKit","Chrome","106.0.0.0","Linux","","[0]","","63","4",""
"3771","You see how an owl is sitting on the branch <br> T&uacute ves como un b&uacuteho est&aacute reposando en una rama","{""Q0"":4}","trial","49214","survey-likert","74","831134","0.0-5.0-0.60","18","1","2022-11-29 21:24:46","2df368f4e41f066fd1c82c297b4a1108","187.222.98.55","Mozilla/5.0 (X11; Linux x86_64) AppleWebKit/537.36 (KHTML, like Gecko) Chrome/106.0.0.0 Safari/537.36","WebKit","Chrome","106.0.0.0","Linux","","[0]","","69","4",""
"5250","You see how a donkey is drinking water <br> T&uacute ves como un burro est&aacute bebiendo agua","{""Q0"":4}","trial","49214","survey-likert","75","836394","0.0-5.0-0.61","18","1","2022-11-29 21:24:46","2df368f4e41f066fd1c82c297b4a1108","187.222.98.55","Mozilla/5.0 (X11; Linux x86_64) AppleWebKit/537.36 (KHTML, like Gecko) Chrome/106.0.0.0 Safari/537.36","WebKit","Chrome","106.0.0.0","Linux","","[0]","","45","4",""
"7345","You see how a woman is taking money out of a wallet <br> T&uacute ves como una mujer est&aacute sacando dinero de su billetera","{""Q0"":3}","trial","49214","survey-likert","76","843750","0.0-5.0-0.62","18","1","2022-11-29 21:24:46","2df368f4e41f066fd1c82c297b4a1108","187.222.98.55","Mozilla/5.0 (X11; Linux x86_64) AppleWebKit/537.36 (KHTML, like Gecko) Chrome/106.0.0.0 Safari/537.36","WebKit","Chrome","106.0.0.0","Linux","","[0]","","44","3",""
"8701","You drop a bowling ball on a paper cup <br> T&uacute tiras una bola de boliche a un vaso de papel","{""Q0"":4}","trial","49214","survey-likert","77","852461","0.0-5.0-0.63","18","1","2022-11-29 21:24:46","2df368f4e41f066fd1c82c297b4a1108","187.222.98.55","Mozilla/5.0 (X11; Linux x86_64) AppleWebKit/537.36 (KHTML, like Gecko) Chrome/106.0.0.0 Safari/537.36","WebKit","Chrome","106.0.0.0","Linux","","[0]","","24","4",""
"6655","You see how a doctor is taking a stethoscope <br> T&uacute ves como un doctor est&aacute agarrando un estetoscopio","{""Q0"":4}","trial","49214","survey-likert","78","859126","0.0-5.0-0.64","18","1","2022-11-29 21:24:46","2df368f4e41f066fd1c82c297b4a1108","187.222.98.55","Mozilla/5.0 (X11; Linux x86_64) AppleWebKit/537.36 (KHTML, like Gecko) Chrome/106.0.0.0 Safari/537.36","WebKit","Chrome","106.0.0.0","Linux","","[0]","","49","4",""
"6489","You drop a needle on the mouse pad <br> T&uacute tiras una aguja a la alfombrilla para el rat&oacuten","{""Q0"":2}","trial","49214","survey-likert","79","865626","0.0-5.0-0.65","18","1","2022-11-29 21:24:46","2df368f4e41f066fd1c82c297b4a1108","187.222.98.55","Mozilla/5.0 (X11; Linux x86_64) AppleWebKit/537.36 (KHTML, like Gecko) Chrome/106.0.0.0 Safari/537.36","WebKit","Chrome","106.0.0.0","Linux","","[0]","","42","2",""
"11399","You drop a pencil on the shoe <br> T&uacute tiras un l&aacutepiz al zapato","{""Q0"":3}","trial","49214","survey-likert","80","877035","0.0-5.0-0.66","18","1","2022-11-29 21:24:46","2df368f4e41f066fd1c82c297b4a1108","187.222.98.55","Mozilla/5.0 (X11; Linux x86_64) AppleWebKit/537.36 (KHTML, like Gecko) Chrome/106.0.0.0 Safari/537.36","WebKit","Chrome","106.0.0.0","Linux","","[0]","","40","3",""
"14250","You see how a panda is resting on a tree <br> T&uacute ves como un panda est&aacute descansando en un &aacuterbol","{""Q0"":4}","trial","49214","survey-likert","81","891297","0.0-5.0-0.67","18","1","2022-11-29 21:24:46","2df368f4e41f066fd1c82c297b4a1108","187.222.98.55","Mozilla/5.0 (X11; Linux x86_64) AppleWebKit/537.36 (KHTML, like Gecko) Chrome/106.0.0.0 Safari/537.36","WebKit","Chrome","106.0.0.0","Linux","","[0]","","57","4",""
"4088","You see how a butterfly is sitting on a flower <br> T&uacute ves como una mariposa est&aacute reposando en una flor","{""Q0"":4}","trial","49214","survey-likert","82","895395","0.0-5.0-0.68","18","1","2022-11-29 21:24:46","2df368f4e41f066fd1c82c297b4a1108","187.222.98.55","Mozilla/5.0 (X11; Linux x86_64) AppleWebKit/537.36 (KHTML, like Gecko) Chrome/106.0.0.0 Safari/537.36","WebKit","Chrome","106.0.0.0","Linux","","[0]","","59","4",""
"7862","You drop a bowling ball on a piece of cake <br> T&uacute tiras una bola de boliche a un trozo de pastel","{""Q0"":4}","trial","49214","survey-likert","83","903268","0.0-5.0-0.69","18","1","2022-11-29 21:24:46","2df368f4e41f066fd1c82c297b4a1108","187.222.98.55","Mozilla/5.0 (X11; Linux x86_64) AppleWebKit/537.36 (KHTML, like Gecko) Chrome/106.0.0.0 Safari/537.36","WebKit","Chrome","106.0.0.0","Linux","","[0]","","2","4",""
"11439","You drop a watch on the laptop <br> T&uacute tiras un reloj al port&aacutetil","{""Q0"":4}","trial","49214","survey-likert","84","914720","0.0-5.0-0.70","18","1","2022-11-29 21:24:46","2df368f4e41f066fd1c82c297b4a1108","187.222.98.55","Mozilla/5.0 (X11; Linux x86_64) AppleWebKit/537.36 (KHTML, like Gecko) Chrome/106.0.0.0 Safari/537.36","WebKit","Chrome","106.0.0.0","Linux","","[0]","","37","4",""
"9176","You drop a bowling ball on a cracker <br> T&uacute tiras una bola de boliche a una galleta","{""Q0"":3}","trial","49214","survey-likert","85","923910","0.0-5.0-0.71","18","1","2022-11-29 21:24:46","2df368f4e41f066fd1c82c297b4a1108","187.222.98.55","Mozilla/5.0 (X11; Linux x86_64) AppleWebKit/537.36 (KHTML, like Gecko) Chrome/106.0.0.0 Safari/537.36","WebKit","Chrome","106.0.0.0","Linux","","[0]","","4","3",""
"4487","
    <p style=""font-size:20px;""> You have completed the experiment portion! </p>
    <p style=""font-size:20px;""> Before you are done, we would like you to answer some basic demographic questions. </p>
    <p style=""font-size:20px;""> Note that your answers to these questions will not affect your compensation/credit. </p>
    <p style=""font-size:20px;""> Click the button below to continue.</p>
    ","0","demo","49214","html-button-response","86","928412","0.0-6.0","18","1","2022-11-29 21:24:46","2df368f4e41f066fd1c82c297b4a1108","187.222.98.55","Mozilla/5.0 (X11; Linux x86_64) AppleWebKit/537.36 (KHTML, like Gecko) Chrome/106.0.0.0 Safari/537.36","WebKit","Chrome","106.0.0.0","Linux","","","","","",""
"25290","","{""Age"":""26"",""Gender"":""male"",""Education"":""17""}","demo","49214","survey-text","87","953713","0.0-7.0-0.0","18","1","2022-11-29 21:24:46","2df368f4e41f066fd1c82c297b4a1108","187.222.98.55","Mozilla/5.0 (X11; Linux x86_64) AppleWebKit/537.36 (KHTML, like Gecko) Chrome/106.0.0.0 Safari/537.36","WebKit","Chrome","106.0.0.0","Linux","","","","","",""
"7174","","{""Race"":[""More than once race""]}","demo","49214","survey-multi-select","88","960900","0.0-7.0-1.0","18","1","2022-11-29 21:24:46","2df368f4e41f066fd1c82c297b4a1108","187.222.98.55","Mozilla/5.0 (X11; Linux x86_64) AppleWebKit/537.36 (KHTML, like Gecko) Chrome/106.0.0.0 Safari/537.36","WebKit","Chrome","106.0.0.0","Linux","","[0]","","","",""
"7821","","{""Latino"":""Yes"",""Alert"":""Morning""}","demo","49214","survey-multi-choice","89","968734","0.0-7.0-2.0","18","1","2022-11-29 21:24:46","2df368f4e41f066fd1c82c297b4a1108","187.222.98.55","Mozilla/5.0 (X11; Linux x86_64) AppleWebKit/537.36 (KHTML, like Gecko) Chrome/106.0.0.0 Safari/537.36","WebKit","Chrome","106.0.0.0","Linux","","[0,1]","","","",""
"33797","","{""Q0"":""light cold.""}","demo","49214","survey-text","90","1002546","0.0-7.0-3.0","18","1","2022-11-29 21:24:46","2df368f4e41f066fd1c82c297b4a1108","187.222.98.55","Mozilla/5.0 (X11; Linux x86_64) AppleWebKit/537.36 (KHTML, like Gecko) Chrome/106.0.0.0 Safari/537.36","WebKit","Chrome","106.0.0.0","Linux","","","","","",""
