"rt","stimulus","response","typeoftrial","subject","trial_type","trial_index","time_elapsed","internal_node_id","run_id","condition","recorded_at","source_code_version","ip","user_agent","device","browser","browser_version","platform","platform_version","question_order","practice_rating","sentence_num","rating","Experiment"
"13288","
        <p style=""font-size:20px;""> Welcome! Thank you for your interest in our study. </p>
        <p style=""font-size:20px;""> This study is being conducted by researchers at Bowdoin College.</p>
        <p style=""font-size:20px;""> In this experiment, you will be asked to rate the accuracy of English and Spanish translations.</p>
        <p style=""font-size:20px;""> The entire experiment should not last more than 20 minutes. You will be paid $3 USD for your participation. </p>
        <p style=""font-size:20px;""> Please click <a href = ""https://drive.google.com/file/d/1L92a02eEKCpaAEipmqDcBCDR7rsarqFE/view?usp=sharing"" target = ""_blank"">here</a> to read the full consent form. </p>
        <p style=""font-size:20px;""> If you agree to participate, please click the button below to continue to experiment instructions.</p>
        ","0","consent","41944","html-button-response","0","13291","0.0-0.0","66","1","2022-11-29 22:30:12","2df368f4e41f066fd1c82c297b4a1108","189.145.205.164","Mozilla/5.0 (Windows NT 10.0; Win64; x64) AppleWebKit/537.36 (KHTML, like Gecko) Chrome/107.0.0.0 Safari/537.36","WebKit","Chrome","107.0.0.0","Windows","10.0","","","","",""
"3839","","{""ID"":""613a469755c08ab3b9d682ad""}","ID","41944","survey-text","1","17138","0.0-1.0","66","1","2022-11-29 22:30:12","2df368f4e41f066fd1c82c297b4a1108","189.145.205.164","Mozilla/5.0 (Windows NT 10.0; Win64; x64) AppleWebKit/537.36 (KHTML, like Gecko) Chrome/107.0.0.0 Safari/537.36","WebKit","Chrome","107.0.0.0","Windows","10.0","","","","",""
"13678","
        <p style=""font-size:20px;""> You are about to begin the practice test. </p>
        <p style=""font-size:20px;""> On each trial, you will see a sentence in English and its corresponding Spanish translation. </p>
        <p style=""font-size:20px;""> You will rate the accuracy of the translation on a scale from ""Not at all accurate"" to ""Very accurate."" </p>
        <p style=""font-size:20px;""> If you rate the translation as ""Somewhat innaccurate"" or ""Not at all accurate,"" you will be asked to provide your own translation or a reason why the translation is inaccurate. </p>
        <p style=""font-size:20px;""> Click the button below to continue to the practice session.</p>","0","instructions","41944","html-button-response","2","30818","0.0-2.0","66","1","2022-11-29 22:30:12","2df368f4e41f066fd1c82c297b4a1108","189.145.205.164","Mozilla/5.0 (Windows NT 10.0; Win64; x64) AppleWebKit/537.36 (KHTML, like Gecko) Chrome/107.0.0.0 Safari/537.36","WebKit","Chrome","107.0.0.0","Windows","10.0","","","","",""
"13638","You drop a rock on a phone <br> T&uacute tiras una piedra a un tel&eacutefono","{""Q0"":4}","practice","41944","survey-likert","3","44458","0.0-3.0-0.0","66","1","2022-11-29 22:30:12","2df368f4e41f066fd1c82c297b4a1108","189.145.205.164","Mozilla/5.0 (Windows NT 10.0; Win64; x64) AppleWebKit/537.36 (KHTML, like Gecko) Chrome/107.0.0.0 Safari/537.36","WebKit","Chrome","107.0.0.0","Windows","10.0","[0]","4","","",""
"9723","You see how a duck is playing with a pumpkin <br> T&uacute ves como un pato est&aacute jugando con una calabaza","{""Q0"":4}","practice","41944","survey-likert","4","54186","0.0-3.0-0.1","66","1","2022-11-29 22:30:12","2df368f4e41f066fd1c82c297b4a1108","189.145.205.164","Mozilla/5.0 (Windows NT 10.0; Win64; x64) AppleWebKit/537.36 (KHTML, like Gecko) Chrome/107.0.0.0 Safari/537.36","WebKit","Chrome","107.0.0.0","Windows","10.0","[0]","4","","",""
"10988","You see how an artist is running <br> T&uacute ves como un artista est&aacute corriendo","{""Q0"":4}","practice","41944","survey-likert","5","65177","0.0-3.0-0.2","66","1","2022-11-29 22:30:12","2df368f4e41f066fd1c82c297b4a1108","189.145.205.164","Mozilla/5.0 (Windows NT 10.0; Win64; x64) AppleWebKit/537.36 (KHTML, like Gecko) Chrome/107.0.0.0 Safari/537.36","WebKit","Chrome","107.0.0.0","Windows","10.0","[0]","4","","",""
"8220","You see how a tiger is playing with a goose <br> T&uacute ves como un le&oacuten come una pizza","{""Q0"":0}","practice","41944","survey-likert","6","73401","0.0-3.0-0.3","66","1","2022-11-29 22:30:12","2df368f4e41f066fd1c82c297b4a1108","189.145.205.164","Mozilla/5.0 (Windows NT 10.0; Win64; x64) AppleWebKit/537.36 (KHTML, like Gecko) Chrome/107.0.0.0 Safari/537.36","WebKit","Chrome","107.0.0.0","Windows","10.0","[0]","0","","",""
"106114","You see how a tiger is playing with a goose <br> T&uacute ves como un le&oacuten come una pizza","{""Q0"":""The translation was wrong because they were not the same animals nor was it playing with a pizza""}","practice_low_rate","41944","survey-text","7","179521","0.0-3.0-1.3-0.3","66","1","2022-11-29 22:30:12","2df368f4e41f066fd1c82c297b4a1108","189.145.205.164","Mozilla/5.0 (Windows NT 10.0; Win64; x64) AppleWebKit/537.36 (KHTML, like Gecko) Chrome/107.0.0.0 Safari/537.36","WebKit","Chrome","107.0.0.0","Windows","10.0","","","5","",""
"21910","You see how a teacher is drawing a picture <br> T&uacute ves como un maestro pinta una foto","{""Q0"":3}","practice","41944","survey-likert","8","201434","0.0-3.0-0.4","66","1","2022-11-29 22:30:12","2df368f4e41f066fd1c82c297b4a1108","189.145.205.164","Mozilla/5.0 (Windows NT 10.0; Win64; x64) AppleWebKit/537.36 (KHTML, like Gecko) Chrome/107.0.0.0 Safari/537.36","WebKit","Chrome","107.0.0.0","Windows","10.0","[0]","3","","",""
"22484","You drop a bowling ball on a mircrowave <br> T&uacute tiras una bola de boliche a un horno","{""Q0"":3}","practice","41944","survey-likert","9","223922","0.0-3.0-0.5","66","1","2022-11-29 22:30:12","2df368f4e41f066fd1c82c297b4a1108","189.145.205.164","Mozilla/5.0 (Windows NT 10.0; Win64; x64) AppleWebKit/537.36 (KHTML, like Gecko) Chrome/107.0.0.0 Safari/537.36","WebKit","Chrome","107.0.0.0","Windows","10.0","[0]","3","","",""
"3076","<p style=""font-size:20px;"">You have now completed the practice session! </p>
        <p style=""font-size:20px;"">You will now move on to the main experiment. </p>
        <p style=""font-size:20px;"">Please click the button below to continue. </p>","0","movetoexp","41944","html-button-response","10","227001","0.0-4.0","66","1","2022-11-29 22:30:12","2df368f4e41f066fd1c82c297b4a1108","189.145.205.164","Mozilla/5.0 (Windows NT 10.0; Win64; x64) AppleWebKit/537.36 (KHTML, like Gecko) Chrome/107.0.0.0 Safari/537.36","WebKit","Chrome","107.0.0.0","Windows","10.0","","","","",""
"33263","You drop a bowling ball on a tile <br> T&uacute tiras una bola de boliche a una baldosa","{""Q0"":4}","trial","41944","survey-likert","11","260266","0.0-5.0-0.0","66","1","2022-11-29 22:30:12","2df368f4e41f066fd1c82c297b4a1108","189.145.205.164","Mozilla/5.0 (Windows NT 10.0; Win64; x64) AppleWebKit/537.36 (KHTML, like Gecko) Chrome/107.0.0.0 Safari/537.36","WebKit","Chrome","107.0.0.0","Windows","10.0","[0]","","22","4",""
"7163","You see how a parrot is eating an apple <br> T&uacute ves como un loro est&aacute comiendo una manzana","{""Q0"":4}","trial","41944","survey-likert","12","267433","0.0-5.0-0.1","66","1","2022-11-29 22:30:12","2df368f4e41f066fd1c82c297b4a1108","189.145.205.164","Mozilla/5.0 (Windows NT 10.0; Win64; x64) AppleWebKit/537.36 (KHTML, like Gecko) Chrome/107.0.0.0 Safari/537.36","WebKit","Chrome","107.0.0.0","Windows","10.0","[0]","","58","4",""
"8252","You see how a teenage girl is playing the piano <br> T&uacute ves como una ni&ntildea adolescente est&aacute tocando el piano","{""Q0"":4}","trial","41944","survey-likert","13","275689","0.0-5.0-0.2","66","1","2022-11-29 22:30:12","2df368f4e41f066fd1c82c297b4a1108","189.145.205.164","Mozilla/5.0 (Windows NT 10.0; Win64; x64) AppleWebKit/537.36 (KHTML, like Gecko) Chrome/107.0.0.0 Safari/537.36","WebKit","Chrome","107.0.0.0","Windows","10.0","[0]","","54","4",""
"10709","You see how a man is boiling potatoes <br> T&uacute ves a un hombre est&aacute hirviendo papas","{""Q0"":1}","trial","41944","survey-likert","14","286401","0.0-5.0-0.3","66","1","2022-11-29 22:30:12","2df368f4e41f066fd1c82c297b4a1108","189.145.205.164","Mozilla/5.0 (Windows NT 10.0; Win64; x64) AppleWebKit/537.36 (KHTML, like Gecko) Chrome/107.0.0.0 Safari/537.36","WebKit","Chrome","107.0.0.0","Windows","10.0","[0]","","46","1",""
"48915","You see how a man is boiling potatoes <br> T&uacute ves a un hombre est&aacute hirviendo papas","{""Q0"":""The tenses were not correct""}","low_rate","41944","survey-text","15","335321","0.0-5.0-1.3-0.3","66","1","2022-11-29 22:30:12","2df368f4e41f066fd1c82c297b4a1108","189.145.205.164","Mozilla/5.0 (Windows NT 10.0; Win64; x64) AppleWebKit/537.36 (KHTML, like Gecko) Chrome/107.0.0.0 Safari/537.36","WebKit","Chrome","107.0.0.0","Windows","10.0","","","46","",""
"7846","You drop a bowling ball on a porcelain figure <br> T&uacute tiras una bola de boliche a una figura de porcelana","{""Q0"":4}","trial","41944","survey-likert","16","343169","0.0-5.0-0.4","66","1","2022-11-29 22:30:12","2df368f4e41f066fd1c82c297b4a1108","189.145.205.164","Mozilla/5.0 (Windows NT 10.0; Win64; x64) AppleWebKit/537.36 (KHTML, like Gecko) Chrome/107.0.0.0 Safari/537.36","WebKit","Chrome","107.0.0.0","Windows","10.0","[0]","","1","4",""
"9076","You drop a bowling ball on a chocolate muffin <br> T&uacute tiras una bola de boliche a una magdalena de chocolate","{""Q0"":4}","trial","41944","survey-likert","17","352249","0.0-5.0-0.5","66","1","2022-11-29 22:30:12","2df368f4e41f066fd1c82c297b4a1108","189.145.205.164","Mozilla/5.0 (Windows NT 10.0; Win64; x64) AppleWebKit/537.36 (KHTML, like Gecko) Chrome/107.0.0.0 Safari/537.36","WebKit","Chrome","107.0.0.0","Windows","10.0","[0]","","16","4",""
"8684","You drop a bowling ball on a wine glass <br> T&uacute tiras una bola de boliche a una copa de vino","{""Q0"":4}","trial","41944","survey-likert","18","360937","0.0-5.0-0.6","66","1","2022-11-29 22:30:12","2df368f4e41f066fd1c82c297b4a1108","189.145.205.164","Mozilla/5.0 (Windows NT 10.0; Win64; x64) AppleWebKit/537.36 (KHTML, like Gecko) Chrome/107.0.0.0 Safari/537.36","WebKit","Chrome","107.0.0.0","Windows","10.0","[0]","","5","4",""
"6332","You see how an actress is taking a microphone <br> T&uacute ves como una actriz est&aacute agarrando el micr&oacutefono","{""Q0"":4}","trial","41944","survey-likert","19","367273","0.0-5.0-0.7","66","1","2022-11-29 22:30:12","2df368f4e41f066fd1c82c297b4a1108","189.145.205.164","Mozilla/5.0 (Windows NT 10.0; Win64; x64) AppleWebKit/537.36 (KHTML, like Gecko) Chrome/107.0.0.0 Safari/537.36","WebKit","Chrome","107.0.0.0","Windows","10.0","[0]","","51","4",""
"12412","You drop a cabbage on the table <br> T&uacute tiras una col a la mesa","{""Q0"":3}","trial","41944","survey-likert","20","379689","0.0-5.0-0.8","66","1","2022-11-29 22:30:12","2df368f4e41f066fd1c82c297b4a1108","189.145.205.164","Mozilla/5.0 (Windows NT 10.0; Win64; x64) AppleWebKit/537.36 (KHTML, like Gecko) Chrome/107.0.0.0 Safari/537.36","WebKit","Chrome","107.0.0.0","Windows","10.0","[0]","","35","3",""
"9684","You see how a butterfly is sitting on a flower <br> T&uacute ves como una mariposa est&aacute reposando en una flor","{""Q0"":3}","trial","41944","survey-likert","21","389377","0.0-5.0-0.9","66","1","2022-11-29 22:30:12","2df368f4e41f066fd1c82c297b4a1108","189.145.205.164","Mozilla/5.0 (Windows NT 10.0; Win64; x64) AppleWebKit/537.36 (KHTML, like Gecko) Chrome/107.0.0.0 Safari/537.36","WebKit","Chrome","107.0.0.0","Windows","10.0","[0]","","59","3",""
"11244","You drop a fork on the plate <br> T&uacute tiras un tenedor al plato","{""Q0"":3}","trial","41944","survey-likert","22","400625","0.0-5.0-0.10","66","1","2022-11-29 22:30:12","2df368f4e41f066fd1c82c297b4a1108","189.145.205.164","Mozilla/5.0 (Windows NT 10.0; Win64; x64) AppleWebKit/537.36 (KHTML, like Gecko) Chrome/107.0.0.0 Safari/537.36","WebKit","Chrome","107.0.0.0","Windows","10.0","[0]","","26","3",""
"8244","You drop a towel on the TV <br> T&uacute tiras una toalla a la televisi&oacuten","{""Q0"":4}","trial","41944","survey-likert","23","408873","0.0-5.0-0.11","66","1","2022-11-29 22:30:12","2df368f4e41f066fd1c82c297b4a1108","189.145.205.164","Mozilla/5.0 (Windows NT 10.0; Win64; x64) AppleWebKit/537.36 (KHTML, like Gecko) Chrome/107.0.0.0 Safari/537.36","WebKit","Chrome","107.0.0.0","Windows","10.0","[0]","","53","4",""
"9188","You see how a cook is taking a knife <br> T&uacute ves como un cocinero est&aacute agarrando un cuchillo","{""Q0"":4}","trial","41944","survey-likert","24","418065","0.0-5.0-0.12","66","1","2022-11-29 22:30:12","2df368f4e41f066fd1c82c297b4a1108","189.145.205.164","Mozilla/5.0 (Windows NT 10.0; Win64; x64) AppleWebKit/537.36 (KHTML, like Gecko) Chrome/107.0.0.0 Safari/537.36","WebKit","Chrome","107.0.0.0","Windows","10.0","[0]","","71","4",""
"9772","You drop a needle on the mouse pad <br> T&uacute tiras una aguja a la alfombrilla para el rat&oacuten","{""Q0"":4}","trial","41944","survey-likert","25","427841","0.0-5.0-0.13","66","1","2022-11-29 22:30:12","2df368f4e41f066fd1c82c297b4a1108","189.145.205.164","Mozilla/5.0 (Windows NT 10.0; Win64; x64) AppleWebKit/537.36 (KHTML, like Gecko) Chrome/107.0.0.0 Safari/537.36","WebKit","Chrome","107.0.0.0","Windows","10.0","[0]","","42","4",""
"7484","You see how a woman is paying with a debit card <br> T&uacute ves como una mujer est&aacute pagando con una tarjeta de d&eacutebito","{""Q0"":4}","trial","41944","survey-likert","26","435329","0.0-5.0-0.14","66","1","2022-11-29 22:30:12","2df368f4e41f066fd1c82c297b4a1108","189.145.205.164","Mozilla/5.0 (Windows NT 10.0; Win64; x64) AppleWebKit/537.36 (KHTML, like Gecko) Chrome/107.0.0.0 Safari/537.36","WebKit","Chrome","107.0.0.0","Windows","10.0","[0]","","64","4",""
"17652","You drop a bowling ball on a mirror <br> T&uacute tiras una bola de boliche a un espejo","{""Q0"":3}","trial","41944","survey-likert","27","452985","0.0-5.0-0.15","66","1","2022-11-29 22:30:12","2df368f4e41f066fd1c82c297b4a1108","189.145.205.164","Mozilla/5.0 (Windows NT 10.0; Win64; x64) AppleWebKit/537.36 (KHTML, like Gecko) Chrome/107.0.0.0 Safari/537.36","WebKit","Chrome","107.0.0.0","Windows","10.0","[0]","","15","3",""
"5916","You see how a dentist is drinking a can of cola <br> T&uacute ves como un dentista est&aacute bebiendo una lata de cola","{""Q0"":4}","trial","41944","survey-likert","28","458905","0.0-5.0-0.16","66","1","2022-11-29 22:30:12","2df368f4e41f066fd1c82c297b4a1108","189.145.205.164","Mozilla/5.0 (Windows NT 10.0; Win64; x64) AppleWebKit/537.36 (KHTML, like Gecko) Chrome/107.0.0.0 Safari/537.36","WebKit","Chrome","107.0.0.0","Windows","10.0","[0]","","47","4",""
"6884","You see how a student is writing on a board <br> T&uacute ves como un estudiante est&aacute escribiendo en la pizarra","{""Q0"":4}","trial","41944","survey-likert","29","465793","0.0-5.0-0.17","66","1","2022-11-29 22:30:12","2df368f4e41f066fd1c82c297b4a1108","189.145.205.164","Mozilla/5.0 (Windows NT 10.0; Win64; x64) AppleWebKit/537.36 (KHTML, like Gecko) Chrome/107.0.0.0 Safari/537.36","WebKit","Chrome","107.0.0.0","Windows","10.0","[0]","","50","4",""
"9252","You drop a bowling ball on a light bulb <br> T&uacute tiras una bola de boliche a una bombilla","{""Q0"":4}","trial","41944","survey-likert","30","475049","0.0-5.0-0.18","66","1","2022-11-29 22:30:12","2df368f4e41f066fd1c82c297b4a1108","189.145.205.164","Mozilla/5.0 (Windows NT 10.0; Win64; x64) AppleWebKit/537.36 (KHTML, like Gecko) Chrome/107.0.0.0 Safari/537.36","WebKit","Chrome","107.0.0.0","Windows","10.0","[0]","","14","4",""
"6964","You see how a postman is driving a car <br> T&uacute ves como un cartero est&aacute conduciendo un coche","{""Q0"":4}","trial","41944","survey-likert","31","482016","0.0-5.0-0.19","66","1","2022-11-29 22:30:12","2df368f4e41f066fd1c82c297b4a1108","189.145.205.164","Mozilla/5.0 (Windows NT 10.0; Win64; x64) AppleWebKit/537.36 (KHTML, like Gecko) Chrome/107.0.0.0 Safari/537.36","WebKit","Chrome","107.0.0.0","Windows","10.0","[0]","","32","4",""
"11972","You drop a bowling ball on a ceramic plate <br> T&uacute tiras una bola de boliche a un plato de cer&aacutemica","{""Q0"":3}","trial","41944","survey-likert","32","493992","0.0-5.0-0.20","66","1","2022-11-29 22:30:12","2df368f4e41f066fd1c82c297b4a1108","189.145.205.164","Mozilla/5.0 (Windows NT 10.0; Win64; x64) AppleWebKit/537.36 (KHTML, like Gecko) Chrome/107.0.0.0 Safari/537.36","WebKit","Chrome","107.0.0.0","Windows","10.0","[0]","","19","3",""
"12963","You drop a cushion on the magazine <br> T&uacute tiras un coj&iacuten a la revista","{""Q0"":3}","trial","41944","survey-likert","33","506960","0.0-5.0-0.21","66","1","2022-11-29 22:30:12","2df368f4e41f066fd1c82c297b4a1108","189.145.205.164","Mozilla/5.0 (Windows NT 10.0; Win64; x64) AppleWebKit/537.36 (KHTML, like Gecko) Chrome/107.0.0.0 Safari/537.36","WebKit","Chrome","107.0.0.0","Windows","10.0","[0]","","38","3",""
"14083","You drop a bowling ball on an empty can of beer <br> T&uacute tiras una bola de boliche a una lata de cerveza vac&iacutea","{""Q0"":4}","trial","41944","survey-likert","34","521048","0.0-5.0-0.22","66","1","2022-11-29 22:30:12","2df368f4e41f066fd1c82c297b4a1108","189.145.205.164","Mozilla/5.0 (Windows NT 10.0; Win64; x64) AppleWebKit/537.36 (KHTML, like Gecko) Chrome/107.0.0.0 Safari/537.36","WebKit","Chrome","107.0.0.0","Windows","10.0","[0]","","3","4",""
"7268","You drop a bowling ball on a tomato <br> T&uacute tiras una bola de boliche a un tomate","{""Q0"":3}","trial","41944","survey-likert","35","528320","0.0-5.0-0.23","66","1","2022-11-29 22:30:12","2df368f4e41f066fd1c82c297b4a1108","189.145.205.164","Mozilla/5.0 (Windows NT 10.0; Win64; x64) AppleWebKit/537.36 (KHTML, like Gecko) Chrome/107.0.0.0 Safari/537.36","WebKit","Chrome","107.0.0.0","Windows","10.0","[0]","","23","3",""
"8604","You see how a puppy is playing with a ball <br> T&uacute ves como un cachorro est&aacute jugando con una pelota","{""Q0"":4}","trial","41944","survey-likert","36","536929","0.0-5.0-0.24","66","1","2022-11-29 22:30:12","2df368f4e41f066fd1c82c297b4a1108","189.145.205.164","Mozilla/5.0 (Windows NT 10.0; Win64; x64) AppleWebKit/537.36 (KHTML, like Gecko) Chrome/107.0.0.0 Safari/537.36","WebKit","Chrome","107.0.0.0","Windows","10.0","[0]","","34","4",""
"11484","You drop a bowling ball on a piece of cake <br> T&uacute tiras una bola de boliche a un trozo de pastel","{""Q0"":3}","trial","41944","survey-likert","37","548417","0.0-5.0-0.25","66","1","2022-11-29 22:30:12","2df368f4e41f066fd1c82c297b4a1108","189.145.205.164","Mozilla/5.0 (Windows NT 10.0; Win64; x64) AppleWebKit/537.36 (KHTML, like Gecko) Chrome/107.0.0.0 Safari/537.36","WebKit","Chrome","107.0.0.0","Windows","10.0","[0]","","2","3",""
"10612","You drop a bowling ball on a donut <br> T&uacute tiras una bola de boliche a una rosquilla","{""Q0"":3}","trial","41944","survey-likert","38","559033","0.0-5.0-0.26","66","1","2022-11-29 22:30:12","2df368f4e41f066fd1c82c297b4a1108","189.145.205.164","Mozilla/5.0 (Windows NT 10.0; Win64; x64) AppleWebKit/537.36 (KHTML, like Gecko) Chrome/107.0.0.0 Safari/537.36","WebKit","Chrome","107.0.0.0","Windows","10.0","[0]","","17","3",""
"10468","You drop a remote on the rug <br> T&uacute tiras un control remoto a la alfombra","{""Q0"":3}","trial","41944","survey-likert","39","569505","0.0-5.0-0.27","66","1","2022-11-29 22:30:12","2df368f4e41f066fd1c82c297b4a1108","189.145.205.164","Mozilla/5.0 (Windows NT 10.0; Win64; x64) AppleWebKit/537.36 (KHTML, like Gecko) Chrome/107.0.0.0 Safari/537.36","WebKit","Chrome","107.0.0.0","Windows","10.0","[0]","","39","3",""
"5668","You see how an owl is sitting on the branch <br> T&uacute ves como un b&uacuteho est&aacute reposando en una rama","{""Q0"":4}","trial","41944","survey-likert","40","575177","0.0-5.0-0.28","66","1","2022-11-29 22:30:12","2df368f4e41f066fd1c82c297b4a1108","189.145.205.164","Mozilla/5.0 (Windows NT 10.0; Win64; x64) AppleWebKit/537.36 (KHTML, like Gecko) Chrome/107.0.0.0 Safari/537.36","WebKit","Chrome","107.0.0.0","Windows","10.0","[0]","","69","4",""
"5484","You see how a donkey is drinking water <br> T&uacute ves como un burro est&aacute bebiendo agua","{""Q0"":4}","trial","41944","survey-likert","41","580665","0.0-5.0-0.29","66","1","2022-11-29 22:30:12","2df368f4e41f066fd1c82c297b4a1108","189.145.205.164","Mozilla/5.0 (Windows NT 10.0; Win64; x64) AppleWebKit/537.36 (KHTML, like Gecko) Chrome/107.0.0.0 Safari/537.36","WebKit","Chrome","107.0.0.0","Windows","10.0","[0]","","45","4",""
"6908","You see how a pilot is reading a book <br> T&uacute ves como un piloto est&aacute leyendo un libro","{""Q0"":4}","trial","41944","survey-likert","42","587577","0.0-5.0-0.30","66","1","2022-11-29 22:30:12","2df368f4e41f066fd1c82c297b4a1108","189.145.205.164","Mozilla/5.0 (Windows NT 10.0; Win64; x64) AppleWebKit/537.36 (KHTML, like Gecko) Chrome/107.0.0.0 Safari/537.36","WebKit","Chrome","107.0.0.0","Windows","10.0","[0]","","61","4",""
"11708","You drop a bowling ball on a strawberry <br> T&uacute tiras una bola de boliche a una fresa","{""Q0"":3}","trial","41944","survey-likert","43","599289","0.0-5.0-0.31","66","1","2022-11-29 22:30:12","2df368f4e41f066fd1c82c297b4a1108","189.145.205.164","Mozilla/5.0 (Windows NT 10.0; Win64; x64) AppleWebKit/537.36 (KHTML, like Gecko) Chrome/107.0.0.0 Safari/537.36","WebKit","Chrome","107.0.0.0","Windows","10.0","[0]","","20","3",""
"8620","You see how a hairdresser is taking scissors <br> T&uacute ves como una peluquera est&aacute agarrando las tijeras","{""Q0"":4}","trial","41944","survey-likert","44","607913","0.0-5.0-0.32","66","1","2022-11-29 22:30:12","2df368f4e41f066fd1c82c297b4a1108","189.145.205.164","Mozilla/5.0 (Windows NT 10.0; Win64; x64) AppleWebKit/537.36 (KHTML, like Gecko) Chrome/107.0.0.0 Safari/537.36","WebKit","Chrome","107.0.0.0","Windows","10.0","[0]","","60","4",""
"8683","You drop a bowling ball on a cracker <br> T&uacute tiras una bola de boliche a una galleta","{""Q0"":3}","trial","41944","survey-likert","45","616600","0.0-5.0-0.33","66","1","2022-11-29 22:30:12","2df368f4e41f066fd1c82c297b4a1108","189.145.205.164","Mozilla/5.0 (Windows NT 10.0; Win64; x64) AppleWebKit/537.36 (KHTML, like Gecko) Chrome/107.0.0.0 Safari/537.36","WebKit","Chrome","107.0.0.0","Windows","10.0","[0]","","4","3",""
"10404","You drop a bowling ball on a chocolate ice-cream <br> T&uacute tiras una bola de boliche a un helado de chocolate","{""Q0"":3}","trial","41944","survey-likert","46","627008","0.0-5.0-0.34","66","1","2022-11-29 22:30:12","2df368f4e41f066fd1c82c297b4a1108","189.145.205.164","Mozilla/5.0 (Windows NT 10.0; Win64; x64) AppleWebKit/537.36 (KHTML, like Gecko) Chrome/107.0.0.0 Safari/537.36","WebKit","Chrome","107.0.0.0","Windows","10.0","[0]","","11","3",""
"5675","You see how a doctor is taking a stethoscope <br> T&uacute ves como un doctor est&aacute agarrando un estetoscopio","{""Q0"":4}","trial","41944","survey-likert","47","632688","0.0-5.0-0.35","66","1","2022-11-29 22:30:12","2df368f4e41f066fd1c82c297b4a1108","189.145.205.164","Mozilla/5.0 (Windows NT 10.0; Win64; x64) AppleWebKit/537.36 (KHTML, like Gecko) Chrome/107.0.0.0 Safari/537.36","WebKit","Chrome","107.0.0.0","Windows","10.0","[0]","","49","4",""
"5620","You drop a keyboard on the bed <br> T&uacute tiras un teclado a la cama","{""Q0"":3}","trial","41944","survey-likert","48","638313","0.0-5.0-0.36","66","1","2022-11-29 22:30:12","2df368f4e41f066fd1c82c297b4a1108","189.145.205.164","Mozilla/5.0 (Windows NT 10.0; Win64; x64) AppleWebKit/537.36 (KHTML, like Gecko) Chrome/107.0.0.0 Safari/537.36","WebKit","Chrome","107.0.0.0","Windows","10.0","[0]","","36","3",""
"16051","You see how an old man is hammering a nail <br> T&uacute ves como un hombre anciano est&aacute martillando un clavo","{""Q0"":4}","trial","41944","survey-likert","49","654368","0.0-5.0-0.37","66","1","2022-11-29 22:30:12","2df368f4e41f066fd1c82c297b4a1108","189.145.205.164","Mozilla/5.0 (Windows NT 10.0; Win64; x64) AppleWebKit/537.36 (KHTML, like Gecko) Chrome/107.0.0.0 Safari/537.36","WebKit","Chrome","107.0.0.0","Windows","10.0","[0]","","29","4",""
"5867","You drop a watch on the laptop <br> T&uacute tiras un reloj al port&aacutetil","{""Q0"":3}","trial","41944","survey-likert","50","660241","0.0-5.0-0.38","66","1","2022-11-29 22:30:12","2df368f4e41f066fd1c82c297b4a1108","189.145.205.164","Mozilla/5.0 (Windows NT 10.0; Win64; x64) AppleWebKit/537.36 (KHTML, like Gecko) Chrome/107.0.0.0 Safari/537.36","WebKit","Chrome","107.0.0.0","Windows","10.0","[0]","","37","3",""
"4731","You drop a bowling ball on an iPAD <br> T&uacute tiras una bola de boliche a un iPad","{""Q0"":3}","trial","41944","survey-likert","51","664976","0.0-5.0-0.39","66","1","2022-11-29 22:30:12","2df368f4e41f066fd1c82c297b4a1108","189.145.205.164","Mozilla/5.0 (Windows NT 10.0; Win64; x64) AppleWebKit/537.36 (KHTML, like Gecko) Chrome/107.0.0.0 Safari/537.36","WebKit","Chrome","107.0.0.0","Windows","10.0","[0]","","12","3",""
"5667","You drop a bowling ball on an egg <br> T&uacute tiras una bola de boliche a un huevo","{""Q0"":3}","trial","41944","survey-likert","52","670649","0.0-5.0-0.40","66","1","2022-11-29 22:30:12","2df368f4e41f066fd1c82c297b4a1108","189.145.205.164","Mozilla/5.0 (Windows NT 10.0; Win64; x64) AppleWebKit/537.36 (KHTML, like Gecko) Chrome/107.0.0.0 Safari/537.36","WebKit","Chrome","107.0.0.0","Windows","10.0","[0]","","6","3",""
"6451","You see how a woman is taking money out of a wallet <br> T&uacute ves como una mujer est&aacute sacando dinero de su billetera","{""Q0"":4}","trial","41944","survey-likert","53","677105","0.0-5.0-0.41","66","1","2022-11-29 22:30:12","2df368f4e41f066fd1c82c297b4a1108","189.145.205.164","Mozilla/5.0 (Windows NT 10.0; Win64; x64) AppleWebKit/537.36 (KHTML, like Gecko) Chrome/107.0.0.0 Safari/537.36","WebKit","Chrome","107.0.0.0","Windows","10.0","[0]","","44","4",""
"5436","You see how a boy is peeling a banana <br> T&uacute ves como un ni&ntildeo est&aacute pelando una banana","{""Q0"":4}","trial","41944","survey-likert","54","682544","0.0-5.0-0.42","66","1","2022-11-29 22:30:12","2df368f4e41f066fd1c82c297b4a1108","189.145.205.164","Mozilla/5.0 (Windows NT 10.0; Win64; x64) AppleWebKit/537.36 (KHTML, like Gecko) Chrome/107.0.0.0 Safari/537.36","WebKit","Chrome","107.0.0.0","Windows","10.0","[0]","","30","4",""
"8947","You see how an elephant is eating a watermelon <br> T&uacute ves como un elefante est&aacute comiendo una sand&iacutea","{""Q0"":4}","trial","41944","survey-likert","55","691497","0.0-5.0-0.43","66","1","2022-11-29 22:30:12","2df368f4e41f066fd1c82c297b4a1108","189.145.205.164","Mozilla/5.0 (Windows NT 10.0; Win64; x64) AppleWebKit/537.36 (KHTML, like Gecko) Chrome/107.0.0.0 Safari/537.36","WebKit","Chrome","107.0.0.0","Windows","10.0","[0]","","31","4",""
"8244","You drop a bowling ball on a rice cake <br> T&uacute tiras una bola de boliche a una tortita de arroz","{""Q0"":3}","trial","41944","survey-likert","56","699744","0.0-5.0-0.44","66","1","2022-11-29 22:30:12","2df368f4e41f066fd1c82c297b4a1108","189.145.205.164","Mozilla/5.0 (Windows NT 10.0; Win64; x64) AppleWebKit/537.36 (KHTML, like Gecko) Chrome/107.0.0.0 Safari/537.36","WebKit","Chrome","107.0.0.0","Windows","10.0","[0]","","18","3",""
"9699","You see how a cat is drinking water from a bowl <br> T&uacute ves como un gato est&aacute bebiendo agua de un cuenco","{""Q0"":3}","trial","41944","survey-likert","57","709448","0.0-5.0-0.45","66","1","2022-11-29 22:30:12","2df368f4e41f066fd1c82c297b4a1108","189.145.205.164","Mozilla/5.0 (Windows NT 10.0; Win64; x64) AppleWebKit/537.36 (KHTML, like Gecko) Chrome/107.0.0.0 Safari/537.36","WebKit","Chrome","107.0.0.0","Windows","10.0","[0]","","28","3",""
"7284","You see how a police officer is talking on the phone <br> T&uacute ves como un polic&iacutea est&aacute hablando por el tel&eacutefono","{""Q0"":4}","trial","41944","survey-likert","58","716737","0.0-5.0-0.46","66","1","2022-11-29 22:30:12","2df368f4e41f066fd1c82c297b4a1108","189.145.205.164","Mozilla/5.0 (Windows NT 10.0; Win64; x64) AppleWebKit/537.36 (KHTML, like Gecko) Chrome/107.0.0.0 Safari/537.36","WebKit","Chrome","107.0.0.0","Windows","10.0","[0]","","62","4",""
"10556","You drop a bowling ball on a blackberry <br> T&uacute tiras una bola de boliche a una mora","{""Q0"":3}","trial","41944","survey-likert","59","727296","0.0-5.0-0.47","66","1","2022-11-29 22:30:12","2df368f4e41f066fd1c82c297b4a1108","189.145.205.164","Mozilla/5.0 (Windows NT 10.0; Win64; x64) AppleWebKit/537.36 (KHTML, like Gecko) Chrome/107.0.0.0 Safari/537.36","WebKit","Chrome","107.0.0.0","Windows","10.0","[0]","","8","3",""
"7331","You see how a musician is playing a guitar <br> T&uacute ves como un m&uacutesico est&aacute tocando la guitarra","{""Q0"":4}","trial","41944","survey-likert","60","734632","0.0-5.0-0.48","66","1","2022-11-29 22:30:12","2df368f4e41f066fd1c82c297b4a1108","189.145.205.164","Mozilla/5.0 (Windows NT 10.0; Win64; x64) AppleWebKit/537.36 (KHTML, like Gecko) Chrome/107.0.0.0 Safari/537.36","WebKit","Chrome","107.0.0.0","Windows","10.0","[0]","","27","4",""
"7499","You see how a photographer is taking a photo of a lion <br> T&uacute ves como un fot&oacutegrafo est&aacute tomando una foto de un le&oacuten","{""Q0"":4}","trial","41944","survey-likert","61","742136","0.0-5.0-0.49","66","1","2022-11-29 22:30:12","2df368f4e41f066fd1c82c297b4a1108","189.145.205.164","Mozilla/5.0 (Windows NT 10.0; Win64; x64) AppleWebKit/537.36 (KHTML, like Gecko) Chrome/107.0.0.0 Safari/537.36","WebKit","Chrome","107.0.0.0","Windows","10.0","[0]","","72","4",""
"6860","You see how a giraffe is playing with a zebra <br> T&uacute ves como una jirafa est&aacute jugando con una cebra","{""Q0"":4}","trial","41944","survey-likert","62","749000","0.0-5.0-0.50","66","1","2022-11-29 22:30:12","2df368f4e41f066fd1c82c297b4a1108","189.145.205.164","Mozilla/5.0 (Windows NT 10.0; Win64; x64) AppleWebKit/537.36 (KHTML, like Gecko) Chrome/107.0.0.0 Safari/537.36","WebKit","Chrome","107.0.0.0","Windows","10.0","[0]","","65","4",""
"5884","You see how a panda is resting on a tree <br> T&uacute ves como un panda est&aacute descansando en un &aacuterbol","{""Q0"":4}","trial","41944","survey-likert","63","754888","0.0-5.0-0.51","66","1","2022-11-29 22:30:12","2df368f4e41f066fd1c82c297b4a1108","189.145.205.164","Mozilla/5.0 (Windows NT 10.0; Win64; x64) AppleWebKit/537.36 (KHTML, like Gecko) Chrome/107.0.0.0 Safari/537.36","WebKit","Chrome","107.0.0.0","Windows","10.0","[0]","","57","4",""
"6340","You drop a bowling ball on glasses <br> T&uacute tiras una bola de boliche a unas gafas","{""Q0"":3}","trial","41944","survey-likert","64","761232","0.0-5.0-0.52","66","1","2022-11-29 22:30:12","2df368f4e41f066fd1c82c297b4a1108","189.145.205.164","Mozilla/5.0 (Windows NT 10.0; Win64; x64) AppleWebKit/537.36 (KHTML, like Gecko) Chrome/107.0.0.0 Safari/537.36","WebKit","Chrome","107.0.0.0","Windows","10.0","[0]","","9","3",""
"6715","You see how a horse is chewing hay <br> T&uacute ves como un caballo est&aacute masticando el heno","{""Q0"":4}","trial","41944","survey-likert","65","767952","0.0-5.0-0.53","66","1","2022-11-29 22:30:12","2df368f4e41f066fd1c82c297b4a1108","189.145.205.164","Mozilla/5.0 (Windows NT 10.0; Win64; x64) AppleWebKit/537.36 (KHTML, like Gecko) Chrome/107.0.0.0 Safari/537.36","WebKit","Chrome","107.0.0.0","Windows","10.0","[0]","","55","4",""
"12012","You drop a pencil on the shoe <br> T&uacute tiras un l&aacutepiz al zapato","{""Q0"":4}","trial","41944","survey-likert","66","779968","0.0-5.0-0.54","66","1","2022-11-29 22:30:12","2df368f4e41f066fd1c82c297b4a1108","189.145.205.164","Mozilla/5.0 (Windows NT 10.0; Win64; x64) AppleWebKit/537.36 (KHTML, like Gecko) Chrome/107.0.0.0 Safari/537.36","WebKit","Chrome","107.0.0.0","Windows","10.0","[0]","","40","4",""
"4844","You drop a bowling ball on an iPhone <br> T&uacute tiras una bola de boliche a un iPhone","{""Q0"":3}","trial","41944","survey-likert","67","784816","0.0-5.0-0.55","66","1","2022-11-29 22:30:12","2df368f4e41f066fd1c82c297b4a1108","189.145.205.164","Mozilla/5.0 (Windows NT 10.0; Win64; x64) AppleWebKit/537.36 (KHTML, like Gecko) Chrome/107.0.0.0 Safari/537.36","WebKit","Chrome","107.0.0.0","Windows","10.0","[0]","","13","3",""
"8307","You see how a man is playing with a cat <br> T&uacute ves como un hombre est&aacute jugando con un gato","{""Q0"":4}","trial","41944","survey-likert","68","793128","0.0-5.0-0.56","66","1","2022-11-29 22:30:12","2df368f4e41f066fd1c82c297b4a1108","189.145.205.164","Mozilla/5.0 (Windows NT 10.0; Win64; x64) AppleWebKit/537.36 (KHTML, like Gecko) Chrome/107.0.0.0 Safari/537.36","WebKit","Chrome","107.0.0.0","Windows","10.0","[0]","","67","4",""
"8963","You drop a bowling ball on a paper cup <br> T&uacute tiras una bola de boliche a un vaso de papel","{""Q0"":4}","trial","41944","survey-likert","69","802096","0.0-5.0-0.57","66","1","2022-11-29 22:30:12","2df368f4e41f066fd1c82c297b4a1108","189.145.205.164","Mozilla/5.0 (Windows NT 10.0; Win64; x64) AppleWebKit/537.36 (KHTML, like Gecko) Chrome/107.0.0.0 Safari/537.36","WebKit","Chrome","107.0.0.0","Windows","10.0","[0]","","24","4",""
"13460","You see how a zebra is playing with a horse <br> T&uacute ves como una cebra est&aacute jugando con un caballo","{""Q0"":4}","trial","41944","survey-likert","70","815560","0.0-5.0-0.58","66","1","2022-11-29 22:30:12","2df368f4e41f066fd1c82c297b4a1108","189.145.205.164","Mozilla/5.0 (Windows NT 10.0; Win64; x64) AppleWebKit/537.36 (KHTML, like Gecko) Chrome/107.0.0.0 Safari/537.36","WebKit","Chrome","107.0.0.0","Windows","10.0","[0]","","66","4",""
"10571","You see how a president is writing in the notebook <br> T&uacute ves como un presidente est&aacute escribiendo en la libreta","{""Q0"":4}","trial","41944","survey-likert","71","826136","0.0-5.0-0.59","66","1","2022-11-29 22:30:12","2df368f4e41f066fd1c82c297b4a1108","189.145.205.164","Mozilla/5.0 (Windows NT 10.0; Win64; x64) AppleWebKit/537.36 (KHTML, like Gecko) Chrome/107.0.0.0 Safari/537.36","WebKit","Chrome","107.0.0.0","Windows","10.0","[0]","","63","4",""
"6275","You see how a kitten is playing in the sandbox <br> T&uacute ves como un gatito est&aacute jugando en la caja de arena","{""Q0"":4}","trial","41944","survey-likert","72","832416","0.0-5.0-0.60","66","1","2022-11-29 22:30:12","2df368f4e41f066fd1c82c297b4a1108","189.145.205.164","Mozilla/5.0 (Windows NT 10.0; Win64; x64) AppleWebKit/537.36 (KHTML, like Gecko) Chrome/107.0.0.0 Safari/537.36","WebKit","Chrome","107.0.0.0","Windows","10.0","[0]","","52","4",""
"6940","You see how a mouse is eating cheese <br> T&uacute ves como el rat&oacuten est&aacute comiendo queso","{""Q0"":4}","trial","41944","survey-likert","73","839360","0.0-5.0-0.61","66","1","2022-11-29 22:30:12","2df368f4e41f066fd1c82c297b4a1108","189.145.205.164","Mozilla/5.0 (Windows NT 10.0; Win64; x64) AppleWebKit/537.36 (KHTML, like Gecko) Chrome/107.0.0.0 Safari/537.36","WebKit","Chrome","107.0.0.0","Windows","10.0","[0]","","56","4",""
"5411","You drop a bowling ball on a hat <br> T&uacute tiras una bola de boliche a una gorra","{""Q0"":3}","trial","41944","survey-likert","74","844777","0.0-5.0-0.62","66","1","2022-11-29 22:30:12","2df368f4e41f066fd1c82c297b4a1108","189.145.205.164","Mozilla/5.0 (Windows NT 10.0; Win64; x64) AppleWebKit/537.36 (KHTML, like Gecko) Chrome/107.0.0.0 Safari/537.36","WebKit","Chrome","107.0.0.0","Windows","10.0","[0]","","10","3",""
"7379","You drop a bowling ball on an egg flan <br> T&uacute tiras una bola de boliche a un flan","{""Q0"":3}","trial","41944","survey-likert","75","852161","0.0-5.0-0.63","66","1","2022-11-29 22:30:12","2df368f4e41f066fd1c82c297b4a1108","189.145.205.164","Mozilla/5.0 (Windows NT 10.0; Win64; x64) AppleWebKit/537.36 (KHTML, like Gecko) Chrome/107.0.0.0 Safari/537.36","WebKit","Chrome","107.0.0.0","Windows","10.0","[0]","","7","3",""
"7715","You drop a bowling ball on a piece of sushi <br> T&uacute tiras una bola de boliche a un pedazo de sushi","{""Q0"":3}","trial","41944","survey-likert","76","859881","0.0-5.0-0.64","66","1","2022-11-29 22:30:12","2df368f4e41f066fd1c82c297b4a1108","189.145.205.164","Mozilla/5.0 (Windows NT 10.0; Win64; x64) AppleWebKit/537.36 (KHTML, like Gecko) Chrome/107.0.0.0 Safari/537.36","WebKit","Chrome","107.0.0.0","Windows","10.0","[0]","","21","3",""
"8587","You see how an astronaut is putting on a space suit <br> T&uacute ves como un astronauta se est&aacute poniendo su traje espacial","{""Q0"":4}","trial","41944","survey-likert","77","868473","0.0-5.0-0.65","66","1","2022-11-29 22:30:12","2df368f4e41f066fd1c82c297b4a1108","189.145.205.164","Mozilla/5.0 (Windows NT 10.0; Win64; x64) AppleWebKit/537.36 (KHTML, like Gecko) Chrome/107.0.0.0 Safari/537.36","WebKit","Chrome","107.0.0.0","Windows","10.0","[0]","","33","4",""
"7987","You see how a nurse is taking a syringe <br> T&uacute ves como una enfermera est&aacute agarrando una jeringuilla","{""Q0"":4}","trial","41944","survey-likert","78","876465","0.0-5.0-0.66","66","1","2022-11-29 22:30:12","2df368f4e41f066fd1c82c297b4a1108","189.145.205.164","Mozilla/5.0 (Windows NT 10.0; Win64; x64) AppleWebKit/537.36 (KHTML, like Gecko) Chrome/107.0.0.0 Safari/537.36","WebKit","Chrome","107.0.0.0","Windows","10.0","[0]","","48","4",""
"4979","You see how a man is shaving his beard <br> T&uacute ves como un hombre se est&aacute afeitando la barba","{""Q0"":4}","trial","41944","survey-likert","79","881448","0.0-5.0-0.67","66","1","2022-11-29 22:30:12","2df368f4e41f066fd1c82c297b4a1108","189.145.205.164","Mozilla/5.0 (Windows NT 10.0; Win64; x64) AppleWebKit/537.36 (KHTML, like Gecko) Chrome/107.0.0.0 Safari/537.36","WebKit","Chrome","107.0.0.0","Windows","10.0","[0]","","43","4",""
"6980","You drop a thermometer on the box <br> T&uacute tiras un term&oacutemetro a la caja","{""Q0"":3}","trial","41944","survey-likert","80","888432","0.0-5.0-0.68","66","1","2022-11-29 22:30:12","2df368f4e41f066fd1c82c297b4a1108","189.145.205.164","Mozilla/5.0 (Windows NT 10.0; Win64; x64) AppleWebKit/537.36 (KHTML, like Gecko) Chrome/107.0.0.0 Safari/537.36","WebKit","Chrome","107.0.0.0","Windows","10.0","[0]","","70","3",""
"17324","You drop a toothbrush on the sponge <br> T&uacute tiras un cepillo de dientes en la esponja","{""Q0"":4}","trial","41944","survey-likert","81","905760","0.0-5.0-0.69","66","1","2022-11-29 22:30:12","2df368f4e41f066fd1c82c297b4a1108","189.145.205.164","Mozilla/5.0 (Windows NT 10.0; Win64; x64) AppleWebKit/537.36 (KHTML, like Gecko) Chrome/107.0.0.0 Safari/537.36","WebKit","Chrome","107.0.0.0","Windows","10.0","[0]","","25","4",""
"10234","You drop a ring on the newspaper <br> T&uacute tiras un anillo al peri&oacutedico","{""Q0"":3}","trial","41944","survey-likert","82","916000","0.0-5.0-0.70","66","1","2022-11-29 22:30:12","2df368f4e41f066fd1c82c297b4a1108","189.145.205.164","Mozilla/5.0 (Windows NT 10.0; Win64; x64) AppleWebKit/537.36 (KHTML, like Gecko) Chrome/107.0.0.0 Safari/537.36","WebKit","Chrome","107.0.0.0","Windows","10.0","[0]","","41","3",""
"4547","You see how a thief is stealing a wallet <br> T&uacute ves como un ladr&oacuten est&aacute robando una billetera","{""Q0"":4}","trial","41944","survey-likert","83","920552","0.0-5.0-0.71","66","1","2022-11-29 22:30:12","2df368f4e41f066fd1c82c297b4a1108","189.145.205.164","Mozilla/5.0 (Windows NT 10.0; Win64; x64) AppleWebKit/537.36 (KHTML, like Gecko) Chrome/107.0.0.0 Safari/537.36","WebKit","Chrome","107.0.0.0","Windows","10.0","[0]","","68","4",""
"7419","
    <p style=""font-size:20px;""> You have completed the experiment portion! </p>
    <p style=""font-size:20px;""> Before you are done, we would like you to answer some basic demographic questions. </p>
    <p style=""font-size:20px;""> Note that your answers to these questions will not affect your compensation/credit. </p>
    <p style=""font-size:20px;""> Click the button below to continue.</p>
    ","0","demo","41944","html-button-response","84","927977","0.0-6.0","66","1","2022-11-29 22:30:12","2df368f4e41f066fd1c82c297b4a1108","189.145.205.164","Mozilla/5.0 (Windows NT 10.0; Win64; x64) AppleWebKit/537.36 (KHTML, like Gecko) Chrome/107.0.0.0 Safari/537.36","WebKit","Chrome","107.0.0.0","Windows","10.0","","","","",""
"18370","","{""Age"":""25"",""Gender"":""Female"",""Education"":""16""}","demo","41944","survey-text","85","946352","0.0-7.0-0.0","66","1","2022-11-29 22:30:12","2df368f4e41f066fd1c82c297b4a1108","189.145.205.164","Mozilla/5.0 (Windows NT 10.0; Win64; x64) AppleWebKit/537.36 (KHTML, like Gecko) Chrome/107.0.0.0 Safari/537.36","WebKit","Chrome","107.0.0.0","Windows","10.0","","","","",""
"9432","","{""Race"":[""White/Caucasian"",""Other""]}","demo","41944","survey-multi-select","86","955792","0.0-7.0-1.0","66","1","2022-11-29 22:30:12","2df368f4e41f066fd1c82c297b4a1108","189.145.205.164","Mozilla/5.0 (Windows NT 10.0; Win64; x64) AppleWebKit/537.36 (KHTML, like Gecko) Chrome/107.0.0.0 Safari/537.36","WebKit","Chrome","107.0.0.0","Windows","10.0","[0]","","","",""
"9194","","{""Latino"":""Yes"",""Alert"":""Morning""}","demo","41944","survey-multi-choice","87","964992","0.0-7.0-2.0","66","1","2022-11-29 22:30:12","2df368f4e41f066fd1c82c297b4a1108","189.145.205.164","Mozilla/5.0 (Windows NT 10.0; Win64; x64) AppleWebKit/537.36 (KHTML, like Gecko) Chrome/107.0.0.0 Safari/537.36","WebKit","Chrome","107.0.0.0","Windows","10.0","[0,1]","","","",""
"20745","","{""Q0"":""No, everything was fine""}","demo","41944","survey-text","88","985744","0.0-7.0-3.0","66","1","2022-11-29 22:30:12","2df368f4e41f066fd1c82c297b4a1108","189.145.205.164","Mozilla/5.0 (Windows NT 10.0; Win64; x64) AppleWebKit/537.36 (KHTML, like Gecko) Chrome/107.0.0.0 Safari/537.36","WebKit","Chrome","107.0.0.0","Windows","10.0","","","","",""
"16293","<p>Thank you for participating! </p><strong>Your completion code is: CXEJB7NH. Please copy-paste this code and submit it on Prolific.</strong><p>Click <a href=""https://drive.google.com/file/d/1c70cdHFlc0AaR6RujLWLJwWkv1RbHQJY/view?usp=sharing"" target=""_blank"" rel=""noopener noreferrer"">here</a> to access the debriefing form and know more about our research. <p> Please click the button below to finish the experiment and save your data.</p> <p> IMPORTANT: Please <strong>do not leave this page </strong> without clicking the button below.</p> <p> You may close the tab/window after you click the button below.","0","","","html-button-response","89","1002040","0.0-8.0","66","1","2022-11-29 22:30:12","2df368f4e41f066fd1c82c297b4a1108","189.145.205.164","Mozilla/5.0 (Windows NT 10.0; Win64; x64) AppleWebKit/537.36 (KHTML, like Gecko) Chrome/107.0.0.0 Safari/537.36","WebKit","Chrome","107.0.0.0","Windows","10.0","","","","",""
