"rt","stimulus","response","typeoftrial","subject","trial_type","trial_index","time_elapsed","internal_node_id","run_id","condition","recorded_at","source_code_version","ip","user_agent","device","browser","browser_version","platform","platform_version","question_order","practice_rating","sentence_num","rating","Experiment"
"9724","
        <p style=""font-size:20px;""> Welcome! Thank you for your interest in our study. </p>
        <p style=""font-size:20px;""> This study is being conducted by researchers at Bowdoin College.</p>
        <p style=""font-size:20px;""> In this experiment, you will be asked to rate the accuracy of English and Spanish translations.</p>
        <p style=""font-size:20px;""> The entire experiment should not last more than 20 minutes. You will be paid $3 USD for your participation. </p>
        <p style=""font-size:20px;""> Please click <a href = ""https://drive.google.com/file/d/1L92a02eEKCpaAEipmqDcBCDR7rsarqFE/view?usp=sharing"" target = ""_blank"">here</a> to read the full consent form. </p>
        <p style=""font-size:20px;""> If you agree to participate, please click the button below to continue to experiment instructions.</p>
        ","0","consent","23077","html-button-response","0","9727","0.0-0.0","52","1","2022-11-29 21:25:27","2df368f4e41f066fd1c82c297b4a1108","88.21.15.54","Mozilla/5.0 (Macintosh; Intel Mac OS X 10_15_7) AppleWebKit/605.1.15 (KHTML, like Gecko) Version/15.6 Safari/605.1.15","Macintosh","Safari","15.6","OS X","10_15_7","","","","",""
"6487","","{""ID"":""59e75bef3e4b5a00016aa4e3""}","ID","23077","survey-text","1","16234","0.0-1.0","52","1","2022-11-29 21:25:27","2df368f4e41f066fd1c82c297b4a1108","88.21.15.54","Mozilla/5.0 (Macintosh; Intel Mac OS X 10_15_7) AppleWebKit/605.1.15 (KHTML, like Gecko) Version/15.6 Safari/605.1.15","Macintosh","Safari","15.6","OS X","10_15_7","","","","",""
"12981","
        <p style=""font-size:20px;""> You are about to begin the practice test. </p>
        <p style=""font-size:20px;""> On each trial, you will see a sentence in English and its corresponding Spanish translation. </p>
        <p style=""font-size:20px;""> You will rate the accuracy of the translation on a scale from ""Not at all accurate"" to ""Very accurate."" </p>
        <p style=""font-size:20px;""> If you rate the translation as ""Somewhat innaccurate"" or ""Not at all accurate,"" you will be asked to provide your own translation or a reason why the translation is inaccurate. </p>
        <p style=""font-size:20px;""> Click the button below to continue to the practice session.</p>","0","instructions","23077","html-button-response","2","29216","0.0-2.0","52","1","2022-11-29 21:25:27","2df368f4e41f066fd1c82c297b4a1108","88.21.15.54","Mozilla/5.0 (Macintosh; Intel Mac OS X 10_15_7) AppleWebKit/605.1.15 (KHTML, like Gecko) Version/15.6 Safari/605.1.15","Macintosh","Safari","15.6","OS X","10_15_7","","","","",""
"10299","You see how a tiger is playing with a goose <br> T&uacute ves como un le&oacuten come una pizza","{""Q0"":0}","practice","23077","survey-likert","3","39517","0.0-3.0-0.0","52","1","2022-11-29 21:25:27","2df368f4e41f066fd1c82c297b4a1108","88.21.15.54","Mozilla/5.0 (Macintosh; Intel Mac OS X 10_15_7) AppleWebKit/605.1.15 (KHTML, like Gecko) Version/15.6 Safari/605.1.15","Macintosh","Safari","15.6","OS X","10_15_7","[0]","0","","",""
"25325","You see how a tiger is playing with a goose <br> T&uacute ves como un le&oacuten come una pizza","{""Q0"":""Ves como un tigre persigue un ganso.""}","practice_low_rate","23077","survey-text","4","64850","0.0-3.0-1.0-0.0","52","1","2022-11-29 21:25:27","2df368f4e41f066fd1c82c297b4a1108","88.21.15.54","Mozilla/5.0 (Macintosh; Intel Mac OS X 10_15_7) AppleWebKit/605.1.15 (KHTML, like Gecko) Version/15.6 Safari/605.1.15","Macintosh","Safari","15.6","OS X","10_15_7","","","5","",""
"4667","You see how an artist is running <br> T&uacute ves como un artista est&aacute corriendo","{""Q0"":4}","practice","23077","survey-likert","5","69519","0.0-3.0-0.1","52","1","2022-11-29 21:25:27","2df368f4e41f066fd1c82c297b4a1108","88.21.15.54","Mozilla/5.0 (Macintosh; Intel Mac OS X 10_15_7) AppleWebKit/605.1.15 (KHTML, like Gecko) Version/15.6 Safari/605.1.15","Macintosh","Safari","15.6","OS X","10_15_7","[0]","4","","",""
"6848","You drop a rock on a phone <br> T&uacute tiras una piedra a un tel&eacutefono","{""Q0"":4}","practice","23077","survey-likert","6","76369","0.0-3.0-0.2","52","1","2022-11-29 21:25:27","2df368f4e41f066fd1c82c297b4a1108","88.21.15.54","Mozilla/5.0 (Macintosh; Intel Mac OS X 10_15_7) AppleWebKit/605.1.15 (KHTML, like Gecko) Version/15.6 Safari/605.1.15","Macintosh","Safari","15.6","OS X","10_15_7","[0]","4","","",""
"11766","You drop a bowling ball on a mircrowave <br> T&uacute tiras una bola de boliche a un horno","{""Q0"":2}","practice","23077","survey-likert","7","88136","0.0-3.0-0.3","52","1","2022-11-29 21:25:27","2df368f4e41f066fd1c82c297b4a1108","88.21.15.54","Mozilla/5.0 (Macintosh; Intel Mac OS X 10_15_7) AppleWebKit/605.1.15 (KHTML, like Gecko) Version/15.6 Safari/605.1.15","Macintosh","Safari","15.6","OS X","10_15_7","[0]","2","","",""
"9376","You see how a duck is playing with a pumpkin <br> T&uacute ves como un pato est&aacute jugando con una calabaza","{""Q0"":3}","practice","23077","survey-likert","8","97514","0.0-3.0-0.4","52","1","2022-11-29 21:25:27","2df368f4e41f066fd1c82c297b4a1108","88.21.15.54","Mozilla/5.0 (Macintosh; Intel Mac OS X 10_15_7) AppleWebKit/605.1.15 (KHTML, like Gecko) Version/15.6 Safari/605.1.15","Macintosh","Safari","15.6","OS X","10_15_7","[0]","3","","",""
"7545","You see how a teacher is drawing a picture <br> T&uacute ves como un maestro pinta una foto","{""Q0"":3}","practice","23077","survey-likert","9","105061","0.0-3.0-0.5","52","1","2022-11-29 21:25:27","2df368f4e41f066fd1c82c297b4a1108","88.21.15.54","Mozilla/5.0 (Macintosh; Intel Mac OS X 10_15_7) AppleWebKit/605.1.15 (KHTML, like Gecko) Version/15.6 Safari/605.1.15","Macintosh","Safari","15.6","OS X","10_15_7","[0]","3","","",""
"3422","<p style=""font-size:20px;"">You have now completed the practice session! </p>
        <p style=""font-size:20px;"">You will now move on to the main experiment. </p>
        <p style=""font-size:20px;"">Please click the button below to continue. </p>","0","movetoexp","23077","html-button-response","10","108487","0.0-4.0","52","1","2022-11-29 21:25:27","2df368f4e41f066fd1c82c297b4a1108","88.21.15.54","Mozilla/5.0 (Macintosh; Intel Mac OS X 10_15_7) AppleWebKit/605.1.15 (KHTML, like Gecko) Version/15.6 Safari/605.1.15","Macintosh","Safari","15.6","OS X","10_15_7","","","","",""
"5809","You see how a donkey is drinking water <br> T&uacute ves como un burro est&aacute bebiendo agua","{""Q0"":3}","trial","23077","survey-likert","11","114297","0.0-5.0-0.0","52","1","2022-11-29 21:25:27","2df368f4e41f066fd1c82c297b4a1108","88.21.15.54","Mozilla/5.0 (Macintosh; Intel Mac OS X 10_15_7) AppleWebKit/605.1.15 (KHTML, like Gecko) Version/15.6 Safari/605.1.15","Macintosh","Safari","15.6","OS X","10_15_7","[0]","","45","3",""
"9810","You see how a nurse is taking a syringe <br> T&uacute ves como una enfermera est&aacute agarrando una jeringuilla","{""Q0"":3}","trial","23077","survey-likert","12","124110","0.0-5.0-0.1","52","1","2022-11-29 21:25:27","2df368f4e41f066fd1c82c297b4a1108","88.21.15.54","Mozilla/5.0 (Macintosh; Intel Mac OS X 10_15_7) AppleWebKit/605.1.15 (KHTML, like Gecko) Version/15.6 Safari/605.1.15","Macintosh","Safari","15.6","OS X","10_15_7","[0]","","48","3",""
"8303","You drop a fork on the plate <br> T&uacute tiras un tenedor al plato","{""Q0"":4}","trial","23077","survey-likert","13","132415","0.0-5.0-0.2","52","1","2022-11-29 21:25:27","2df368f4e41f066fd1c82c297b4a1108","88.21.15.54","Mozilla/5.0 (Macintosh; Intel Mac OS X 10_15_7) AppleWebKit/605.1.15 (KHTML, like Gecko) Version/15.6 Safari/605.1.15","Macintosh","Safari","15.6","OS X","10_15_7","[0]","","26","4",""
"5267","You drop a bowling ball on a tile <br> T&uacute tiras una bola de boliche a una baldosa","{""Q0"":4}","trial","23077","survey-likert","14","137685","0.0-5.0-0.3","52","1","2022-11-29 21:25:27","2df368f4e41f066fd1c82c297b4a1108","88.21.15.54","Mozilla/5.0 (Macintosh; Intel Mac OS X 10_15_7) AppleWebKit/605.1.15 (KHTML, like Gecko) Version/15.6 Safari/605.1.15","Macintosh","Safari","15.6","OS X","10_15_7","[0]","","22","4",""
"5354","You drop a bowling ball on a wine glass <br> T&uacute tiras una bola de boliche a una copa de vino","{""Q0"":4}","trial","23077","survey-likert","15","143042","0.0-5.0-0.4","52","1","2022-11-29 21:25:27","2df368f4e41f066fd1c82c297b4a1108","88.21.15.54","Mozilla/5.0 (Macintosh; Intel Mac OS X 10_15_7) AppleWebKit/605.1.15 (KHTML, like Gecko) Version/15.6 Safari/605.1.15","Macintosh","Safari","15.6","OS X","10_15_7","[0]","","5","4",""
"9789","You see how a man is boiling potatoes <br> T&uacute ves a un hombre est&aacute hirviendo papas","{""Q0"":1}","trial","23077","survey-likert","16","152833","0.0-5.0-0.5","52","1","2022-11-29 21:25:27","2df368f4e41f066fd1c82c297b4a1108","88.21.15.54","Mozilla/5.0 (Macintosh; Intel Mac OS X 10_15_7) AppleWebKit/605.1.15 (KHTML, like Gecko) Version/15.6 Safari/605.1.15","Macintosh","Safari","15.6","OS X","10_15_7","[0]","","46","1",""
"12317","You see how a man is boiling potatoes <br> T&uacute ves a un hombre est&aacute hirviendo papas","{""Q0"":""Tú ves a un hombre que está hirviendo papas.""}","low_rate","23077","survey-text","17","165157","0.0-5.0-1.5-0.5","52","1","2022-11-29 21:25:27","2df368f4e41f066fd1c82c297b4a1108","88.21.15.54","Mozilla/5.0 (Macintosh; Intel Mac OS X 10_15_7) AppleWebKit/605.1.15 (KHTML, like Gecko) Version/15.6 Safari/605.1.15","Macintosh","Safari","15.6","OS X","10_15_7","","","46","",""
"5689","You see how a kitten is playing in the sandbox <br> T&uacute ves como un gatito est&aacute jugando en la caja de arena","{""Q0"":3}","trial","23077","survey-likert","18","170848","0.0-5.0-0.6","52","1","2022-11-29 21:25:27","2df368f4e41f066fd1c82c297b4a1108","88.21.15.54","Mozilla/5.0 (Macintosh; Intel Mac OS X 10_15_7) AppleWebKit/605.1.15 (KHTML, like Gecko) Version/15.6 Safari/605.1.15","Macintosh","Safari","15.6","OS X","10_15_7","[0]","","52","3",""
"8808","You drop a bowling ball on a rice cake <br> T&uacute tiras una bola de boliche a una tortita de arroz","{""Q0"":3}","trial","23077","survey-likert","19","179659","0.0-5.0-0.7","52","1","2022-11-29 21:25:27","2df368f4e41f066fd1c82c297b4a1108","88.21.15.54","Mozilla/5.0 (Macintosh; Intel Mac OS X 10_15_7) AppleWebKit/605.1.15 (KHTML, like Gecko) Version/15.6 Safari/605.1.15","Macintosh","Safari","15.6","OS X","10_15_7","[0]","","18","3",""
"3738","You see how a thief is stealing a wallet <br> T&uacute ves como un ladr&oacuten est&aacute robando una billetera","{""Q0"":3}","trial","23077","survey-likert","20","183400","0.0-5.0-0.8","52","1","2022-11-29 21:25:27","2df368f4e41f066fd1c82c297b4a1108","88.21.15.54","Mozilla/5.0 (Macintosh; Intel Mac OS X 10_15_7) AppleWebKit/605.1.15 (KHTML, like Gecko) Version/15.6 Safari/605.1.15","Macintosh","Safari","15.6","OS X","10_15_7","[0]","","68","3",""
"5192","You see how a president is writing in the notebook <br> T&uacute ves como un presidente est&aacute escribiendo en la libreta","{""Q0"":3}","trial","23077","survey-likert","21","188594","0.0-5.0-0.9","52","1","2022-11-29 21:25:27","2df368f4e41f066fd1c82c297b4a1108","88.21.15.54","Mozilla/5.0 (Macintosh; Intel Mac OS X 10_15_7) AppleWebKit/605.1.15 (KHTML, like Gecko) Version/15.6 Safari/605.1.15","Macintosh","Safari","15.6","OS X","10_15_7","[0]","","63","3",""
"4258","You drop a bowling ball on a chocolate ice-cream <br> T&uacute tiras una bola de boliche a un helado de chocolate","{""Q0"":3}","trial","23077","survey-likert","22","192853","0.0-5.0-0.10","52","1","2022-11-29 21:25:27","2df368f4e41f066fd1c82c297b4a1108","88.21.15.54","Mozilla/5.0 (Macintosh; Intel Mac OS X 10_15_7) AppleWebKit/605.1.15 (KHTML, like Gecko) Version/15.6 Safari/605.1.15","Macintosh","Safari","15.6","OS X","10_15_7","[0]","","11","3",""
"4572","You drop a bowling ball on an iPhone <br> T&uacute tiras una bola de boliche a un iPhone","{""Q0"":3}","trial","23077","survey-likert","23","197428","0.0-5.0-0.11","52","1","2022-11-29 21:25:27","2df368f4e41f066fd1c82c297b4a1108","88.21.15.54","Mozilla/5.0 (Macintosh; Intel Mac OS X 10_15_7) AppleWebKit/605.1.15 (KHTML, like Gecko) Version/15.6 Safari/605.1.15","Macintosh","Safari","15.6","OS X","10_15_7","[0]","","13","3",""
"3755","You drop a pencil on the shoe <br> T&uacute tiras un l&aacutepiz al zapato","{""Q0"":3}","trial","23077","survey-likert","24","201186","0.0-5.0-0.12","52","1","2022-11-29 21:25:27","2df368f4e41f066fd1c82c297b4a1108","88.21.15.54","Mozilla/5.0 (Macintosh; Intel Mac OS X 10_15_7) AppleWebKit/605.1.15 (KHTML, like Gecko) Version/15.6 Safari/605.1.15","Macintosh","Safari","15.6","OS X","10_15_7","[0]","","40","3",""
"4892","You drop a bowling ball on glasses <br> T&uacute tiras una bola de boliche a unas gafas","{""Q0"":4}","trial","23077","survey-likert","25","206080","0.0-5.0-0.13","52","1","2022-11-29 21:25:27","2df368f4e41f066fd1c82c297b4a1108","88.21.15.54","Mozilla/5.0 (Macintosh; Intel Mac OS X 10_15_7) AppleWebKit/605.1.15 (KHTML, like Gecko) Version/15.6 Safari/605.1.15","Macintosh","Safari","15.6","OS X","10_15_7","[0]","","9","4",""
"7838","You drop a needle on the mouse pad <br> T&uacute tiras una aguja a la alfombrilla para el rat&oacuten","{""Q0"":3}","trial","23077","survey-likert","26","213921","0.0-5.0-0.14","52","1","2022-11-29 21:25:27","2df368f4e41f066fd1c82c297b4a1108","88.21.15.54","Mozilla/5.0 (Macintosh; Intel Mac OS X 10_15_7) AppleWebKit/605.1.15 (KHTML, like Gecko) Version/15.6 Safari/605.1.15","Macintosh","Safari","15.6","OS X","10_15_7","[0]","","42","3",""
"7825","You drop a ring on the newspaper <br> T&uacute tiras un anillo al peri&oacutedico","{""Q0"":4}","trial","23077","survey-likert","27","221748","0.0-5.0-0.15","52","1","2022-11-29 21:25:27","2df368f4e41f066fd1c82c297b4a1108","88.21.15.54","Mozilla/5.0 (Macintosh; Intel Mac OS X 10_15_7) AppleWebKit/605.1.15 (KHTML, like Gecko) Version/15.6 Safari/605.1.15","Macintosh","Safari","15.6","OS X","10_15_7","[0]","","41","4",""
"5629","You see how an owl is sitting on the branch <br> T&uacute ves como un b&uacuteho est&aacute reposando en una rama","{""Q0"":3}","trial","23077","survey-likert","28","227379","0.0-5.0-0.16","52","1","2022-11-29 21:25:27","2df368f4e41f066fd1c82c297b4a1108","88.21.15.54","Mozilla/5.0 (Macintosh; Intel Mac OS X 10_15_7) AppleWebKit/605.1.15 (KHTML, like Gecko) Version/15.6 Safari/605.1.15","Macintosh","Safari","15.6","OS X","10_15_7","[0]","","69","3",""
"4865","You see how a mouse is eating cheese <br> T&uacute ves como el rat&oacuten est&aacute comiendo queso","{""Q0"":3}","trial","23077","survey-likert","29","232246","0.0-5.0-0.17","52","1","2022-11-29 21:25:27","2df368f4e41f066fd1c82c297b4a1108","88.21.15.54","Mozilla/5.0 (Macintosh; Intel Mac OS X 10_15_7) AppleWebKit/605.1.15 (KHTML, like Gecko) Version/15.6 Safari/605.1.15","Macintosh","Safari","15.6","OS X","10_15_7","[0]","","56","3",""
"4917","You see how a doctor is taking a stethoscope <br> T&uacute ves como un doctor est&aacute agarrando un estetoscopio","{""Q0"":3}","trial","23077","survey-likert","30","237165","0.0-5.0-0.18","52","1","2022-11-29 21:25:27","2df368f4e41f066fd1c82c297b4a1108","88.21.15.54","Mozilla/5.0 (Macintosh; Intel Mac OS X 10_15_7) AppleWebKit/605.1.15 (KHTML, like Gecko) Version/15.6 Safari/605.1.15","Macintosh","Safari","15.6","OS X","10_15_7","[0]","","49","3",""
"4997","You see how a butterfly is sitting on a flower <br> T&uacute ves como una mariposa est&aacute reposando en una flor","{""Q0"":3}","trial","23077","survey-likert","31","242166","0.0-5.0-0.19","52","1","2022-11-29 21:25:27","2df368f4e41f066fd1c82c297b4a1108","88.21.15.54","Mozilla/5.0 (Macintosh; Intel Mac OS X 10_15_7) AppleWebKit/605.1.15 (KHTML, like Gecko) Version/15.6 Safari/605.1.15","Macintosh","Safari","15.6","OS X","10_15_7","[0]","","59","3",""
"8738","You see how a puppy is playing with a ball <br> T&uacute ves como un cachorro est&aacute jugando con una pelota","{""Q0"":3}","trial","23077","survey-likert","32","250907","0.0-5.0-0.20","52","1","2022-11-29 21:25:27","2df368f4e41f066fd1c82c297b4a1108","88.21.15.54","Mozilla/5.0 (Macintosh; Intel Mac OS X 10_15_7) AppleWebKit/605.1.15 (KHTML, like Gecko) Version/15.6 Safari/605.1.15","Macintosh","Safari","15.6","OS X","10_15_7","[0]","","34","3",""
"5717","You drop a cushion on the magazine <br> T&uacute tiras un coj&iacuten a la revista","{""Q0"":4}","trial","23077","survey-likert","33","256626","0.0-5.0-0.21","52","1","2022-11-29 21:25:27","2df368f4e41f066fd1c82c297b4a1108","88.21.15.54","Mozilla/5.0 (Macintosh; Intel Mac OS X 10_15_7) AppleWebKit/605.1.15 (KHTML, like Gecko) Version/15.6 Safari/605.1.15","Macintosh","Safari","15.6","OS X","10_15_7","[0]","","38","4",""
"4036","You see how a cook is taking a knife <br> T&uacute ves como un cocinero est&aacute agarrando un cuchillo","{""Q0"":3}","trial","23077","survey-likert","34","260664","0.0-5.0-0.22","52","1","2022-11-29 21:25:27","2df368f4e41f066fd1c82c297b4a1108","88.21.15.54","Mozilla/5.0 (Macintosh; Intel Mac OS X 10_15_7) AppleWebKit/605.1.15 (KHTML, like Gecko) Version/15.6 Safari/605.1.15","Macintosh","Safari","15.6","OS X","10_15_7","[0]","","71","3",""
"13280","You drop a bowling ball on a piece of sushi <br> T&uacute tiras una bola de boliche a un pedazo de sushi","{""Q0"":2}","trial","23077","survey-likert","35","273947","0.0-5.0-0.23","52","1","2022-11-29 21:25:27","2df368f4e41f066fd1c82c297b4a1108","88.21.15.54","Mozilla/5.0 (Macintosh; Intel Mac OS X 10_15_7) AppleWebKit/605.1.15 (KHTML, like Gecko) Version/15.6 Safari/605.1.15","Macintosh","Safari","15.6","OS X","10_15_7","[0]","","21","2",""
"4793","You drop a bowling ball on a hat <br> T&uacute tiras una bola de boliche a una gorra","{""Q0"":4}","trial","23077","survey-likert","36","278743","0.0-5.0-0.24","52","1","2022-11-29 21:25:27","2df368f4e41f066fd1c82c297b4a1108","88.21.15.54","Mozilla/5.0 (Macintosh; Intel Mac OS X 10_15_7) AppleWebKit/605.1.15 (KHTML, like Gecko) Version/15.6 Safari/605.1.15","Macintosh","Safari","15.6","OS X","10_15_7","[0]","","10","4",""
"2828","You see how a pilot is reading a book <br> T&uacute ves como un piloto est&aacute leyendo un libro","{""Q0"":3}","trial","23077","survey-likert","37","281575","0.0-5.0-0.25","52","1","2022-11-29 21:25:27","2df368f4e41f066fd1c82c297b4a1108","88.21.15.54","Mozilla/5.0 (Macintosh; Intel Mac OS X 10_15_7) AppleWebKit/605.1.15 (KHTML, like Gecko) Version/15.6 Safari/605.1.15","Macintosh","Safari","15.6","OS X","10_15_7","[0]","","61","3",""
"8284","You see how an actress is taking a microphone <br> T&uacute ves como una actriz est&aacute agarrando el micr&oacutefono","{""Q0"":2}","trial","23077","survey-likert","38","289861","0.0-5.0-0.26","52","1","2022-11-29 21:25:27","2df368f4e41f066fd1c82c297b4a1108","88.21.15.54","Mozilla/5.0 (Macintosh; Intel Mac OS X 10_15_7) AppleWebKit/605.1.15 (KHTML, like Gecko) Version/15.6 Safari/605.1.15","Macintosh","Safari","15.6","OS X","10_15_7","[0]","","51","2",""
"5644","You see how a photographer is taking a photo of a lion <br> T&uacute ves como un fot&oacutegrafo est&aacute tomando una foto de un le&oacuten","{""Q0"":3}","trial","23077","survey-likert","39","295507","0.0-5.0-0.27","52","1","2022-11-29 21:25:27","2df368f4e41f066fd1c82c297b4a1108","88.21.15.54","Mozilla/5.0 (Macintosh; Intel Mac OS X 10_15_7) AppleWebKit/605.1.15 (KHTML, like Gecko) Version/15.6 Safari/605.1.15","Macintosh","Safari","15.6","OS X","10_15_7","[0]","","72","3",""
"4945","You drop a bowling ball on a piece of cake <br> T&uacute tiras una bola de boliche a un trozo de pastel","{""Q0"":4}","trial","23077","survey-likert","40","300454","0.0-5.0-0.28","52","1","2022-11-29 21:25:27","2df368f4e41f066fd1c82c297b4a1108","88.21.15.54","Mozilla/5.0 (Macintosh; Intel Mac OS X 10_15_7) AppleWebKit/605.1.15 (KHTML, like Gecko) Version/15.6 Safari/605.1.15","Macintosh","Safari","15.6","OS X","10_15_7","[0]","","2","4",""
"3656","You see how an elephant is eating a watermelon <br> T&uacute ves como un elefante est&aacute comiendo una sand&iacutea","{""Q0"":3}","trial","23077","survey-likert","41","304113","0.0-5.0-0.29","52","1","2022-11-29 21:25:27","2df368f4e41f066fd1c82c297b4a1108","88.21.15.54","Mozilla/5.0 (Macintosh; Intel Mac OS X 10_15_7) AppleWebKit/605.1.15 (KHTML, like Gecko) Version/15.6 Safari/605.1.15","Macintosh","Safari","15.6","OS X","10_15_7","[0]","","31","3",""
"4064","You see how a boy is peeling a banana <br> T&uacute ves como un ni&ntildeo est&aacute pelando una banana","{""Q0"":3}","trial","23077","survey-likert","42","308180","0.0-5.0-0.30","52","1","2022-11-29 21:25:27","2df368f4e41f066fd1c82c297b4a1108","88.21.15.54","Mozilla/5.0 (Macintosh; Intel Mac OS X 10_15_7) AppleWebKit/605.1.15 (KHTML, like Gecko) Version/15.6 Safari/605.1.15","Macintosh","Safari","15.6","OS X","10_15_7","[0]","","30","3",""
"7651","You drop a keyboard on the bed <br> T&uacute tiras un teclado a la cama","{""Q0"":4}","trial","23077","survey-likert","43","315833","0.0-5.0-0.31","52","1","2022-11-29 21:25:27","2df368f4e41f066fd1c82c297b4a1108","88.21.15.54","Mozilla/5.0 (Macintosh; Intel Mac OS X 10_15_7) AppleWebKit/605.1.15 (KHTML, like Gecko) Version/15.6 Safari/605.1.15","Macintosh","Safari","15.6","OS X","10_15_7","[0]","","36","4",""
"7570","You drop a bowling ball on a paper cup <br> T&uacute tiras una bola de boliche a un vaso de papel","{""Q0"":4}","trial","23077","survey-likert","44","323405","0.0-5.0-0.32","52","1","2022-11-29 21:25:27","2df368f4e41f066fd1c82c297b4a1108","88.21.15.54","Mozilla/5.0 (Macintosh; Intel Mac OS X 10_15_7) AppleWebKit/605.1.15 (KHTML, like Gecko) Version/15.6 Safari/605.1.15","Macintosh","Safari","15.6","OS X","10_15_7","[0]","","24","4",""
"4895","You see how a parrot is eating an apple <br> T&uacute ves como un loro est&aacute comiendo una manzana","{""Q0"":3}","trial","23077","survey-likert","45","328305","0.0-5.0-0.33","52","1","2022-11-29 21:25:27","2df368f4e41f066fd1c82c297b4a1108","88.21.15.54","Mozilla/5.0 (Macintosh; Intel Mac OS X 10_15_7) AppleWebKit/605.1.15 (KHTML, like Gecko) Version/15.6 Safari/605.1.15","Macintosh","Safari","15.6","OS X","10_15_7","[0]","","58","3",""
"3240","You drop a bowling ball on a light bulb <br> T&uacute tiras una bola de boliche a una bombilla","{""Q0"":4}","trial","23077","survey-likert","46","331547","0.0-5.0-0.34","52","1","2022-11-29 21:25:27","2df368f4e41f066fd1c82c297b4a1108","88.21.15.54","Mozilla/5.0 (Macintosh; Intel Mac OS X 10_15_7) AppleWebKit/605.1.15 (KHTML, like Gecko) Version/15.6 Safari/605.1.15","Macintosh","Safari","15.6","OS X","10_15_7","[0]","","14","4",""
"3498","You drop a towel on the TV <br> T&uacute tiras una toalla a la televisi&oacuten","{""Q0"":4}","trial","23077","survey-likert","47","335048","0.0-5.0-0.35","52","1","2022-11-29 21:25:27","2df368f4e41f066fd1c82c297b4a1108","88.21.15.54","Mozilla/5.0 (Macintosh; Intel Mac OS X 10_15_7) AppleWebKit/605.1.15 (KHTML, like Gecko) Version/15.6 Safari/605.1.15","Macintosh","Safari","15.6","OS X","10_15_7","[0]","","53","4",""
"10304","You see how an old man is hammering a nail <br> T&uacute ves como un hombre anciano est&aacute martillando un clavo","{""Q0"":2}","trial","23077","survey-likert","48","345354","0.0-5.0-0.36","52","1","2022-11-29 21:25:27","2df368f4e41f066fd1c82c297b4a1108","88.21.15.54","Mozilla/5.0 (Macintosh; Intel Mac OS X 10_15_7) AppleWebKit/605.1.15 (KHTML, like Gecko) Version/15.6 Safari/605.1.15","Macintosh","Safari","15.6","OS X","10_15_7","[0]","","29","2",""
"6012","You drop a remote on the rug <br> T&uacute tiras un control remoto a la alfombra","{""Q0"":2}","trial","23077","survey-likert","49","351369","0.0-5.0-0.37","52","1","2022-11-29 21:25:27","2df368f4e41f066fd1c82c297b4a1108","88.21.15.54","Mozilla/5.0 (Macintosh; Intel Mac OS X 10_15_7) AppleWebKit/605.1.15 (KHTML, like Gecko) Version/15.6 Safari/605.1.15","Macintosh","Safari","15.6","OS X","10_15_7","[0]","","39","2",""
"4125","You drop a bowling ball on a porcelain figure <br> T&uacute tiras una bola de boliche a una figura de porcelana","{""Q0"":4}","trial","23077","survey-likert","50","355496","0.0-5.0-0.38","52","1","2022-11-29 21:25:27","2df368f4e41f066fd1c82c297b4a1108","88.21.15.54","Mozilla/5.0 (Macintosh; Intel Mac OS X 10_15_7) AppleWebKit/605.1.15 (KHTML, like Gecko) Version/15.6 Safari/605.1.15","Macintosh","Safari","15.6","OS X","10_15_7","[0]","","1","4",""
"4606","You see how a man is shaving his beard <br> T&uacute ves como un hombre se est&aacute afeitando la barba","{""Q0"":3}","trial","23077","survey-likert","51","360105","0.0-5.0-0.39","52","1","2022-11-29 21:25:27","2df368f4e41f066fd1c82c297b4a1108","88.21.15.54","Mozilla/5.0 (Macintosh; Intel Mac OS X 10_15_7) AppleWebKit/605.1.15 (KHTML, like Gecko) Version/15.6 Safari/605.1.15","Macintosh","Safari","15.6","OS X","10_15_7","[0]","","43","3",""
"4326","You see how an astronaut is putting on a space suit <br> T&uacute ves como un astronauta se est&aacute poniendo su traje espacial","{""Q0"":3}","trial","23077","survey-likert","52","364434","0.0-5.0-0.40","52","1","2022-11-29 21:25:27","2df368f4e41f066fd1c82c297b4a1108","88.21.15.54","Mozilla/5.0 (Macintosh; Intel Mac OS X 10_15_7) AppleWebKit/605.1.15 (KHTML, like Gecko) Version/15.6 Safari/605.1.15","Macintosh","Safari","15.6","OS X","10_15_7","[0]","","33","3",""
"3366","You drop a bowling ball on a mirror <br> T&uacute tiras una bola de boliche a un espejo","{""Q0"":4}","trial","23077","survey-likert","53","367804","0.0-5.0-0.41","52","1","2022-11-29 21:25:27","2df368f4e41f066fd1c82c297b4a1108","88.21.15.54","Mozilla/5.0 (Macintosh; Intel Mac OS X 10_15_7) AppleWebKit/605.1.15 (KHTML, like Gecko) Version/15.6 Safari/605.1.15","Macintosh","Safari","15.6","OS X","10_15_7","[0]","","15","4",""
"4203","You see how a panda is resting on a tree <br> T&uacute ves como un panda est&aacute descansando en un &aacuterbol","{""Q0"":3}","trial","23077","survey-likert","54","372009","0.0-5.0-0.42","52","1","2022-11-29 21:25:27","2df368f4e41f066fd1c82c297b4a1108","88.21.15.54","Mozilla/5.0 (Macintosh; Intel Mac OS X 10_15_7) AppleWebKit/605.1.15 (KHTML, like Gecko) Version/15.6 Safari/605.1.15","Macintosh","Safari","15.6","OS X","10_15_7","[0]","","57","3",""
"5859","You see how a cat is drinking water from a bowl <br> T&uacute ves como un gato est&aacute bebiendo agua de un cuenco","{""Q0"":3}","trial","23077","survey-likert","55","377871","0.0-5.0-0.43","52","1","2022-11-29 21:25:27","2df368f4e41f066fd1c82c297b4a1108","88.21.15.54","Mozilla/5.0 (Macintosh; Intel Mac OS X 10_15_7) AppleWebKit/605.1.15 (KHTML, like Gecko) Version/15.6 Safari/605.1.15","Macintosh","Safari","15.6","OS X","10_15_7","[0]","","28","3",""
"6439","You drop a bowling ball on a blackberry <br> T&uacute tiras una bola de boliche a una mora","{""Q0"":3}","trial","23077","survey-likert","56","384313","0.0-5.0-0.44","52","1","2022-11-29 21:25:27","2df368f4e41f066fd1c82c297b4a1108","88.21.15.54","Mozilla/5.0 (Macintosh; Intel Mac OS X 10_15_7) AppleWebKit/605.1.15 (KHTML, like Gecko) Version/15.6 Safari/605.1.15","Macintosh","Safari","15.6","OS X","10_15_7","[0]","","8","3",""
"3012","You drop a bowling ball on a ceramic plate <br> T&uacute tiras una bola de boliche a un plato de cer&aacutemica","{""Q0"":4}","trial","23077","survey-likert","57","387329","0.0-5.0-0.45","52","1","2022-11-29 21:25:27","2df368f4e41f066fd1c82c297b4a1108","88.21.15.54","Mozilla/5.0 (Macintosh; Intel Mac OS X 10_15_7) AppleWebKit/605.1.15 (KHTML, like Gecko) Version/15.6 Safari/605.1.15","Macintosh","Safari","15.6","OS X","10_15_7","[0]","","19","4",""
"4141","You see how a giraffe is playing with a zebra <br> T&uacute ves como una jirafa est&aacute jugando con una cebra","{""Q0"":3}","trial","23077","survey-likert","58","391472","0.0-5.0-0.46","52","1","2022-11-29 21:25:27","2df368f4e41f066fd1c82c297b4a1108","88.21.15.54","Mozilla/5.0 (Macintosh; Intel Mac OS X 10_15_7) AppleWebKit/605.1.15 (KHTML, like Gecko) Version/15.6 Safari/605.1.15","Macintosh","Safari","15.6","OS X","10_15_7","[0]","","65","3",""
"5666","You see how a hairdresser is taking scissors <br> T&uacute ves como una peluquera est&aacute agarrando las tijeras","{""Q0"":3}","trial","23077","survey-likert","59","397141","0.0-5.0-0.47","52","1","2022-11-29 21:25:27","2df368f4e41f066fd1c82c297b4a1108","88.21.15.54","Mozilla/5.0 (Macintosh; Intel Mac OS X 10_15_7) AppleWebKit/605.1.15 (KHTML, like Gecko) Version/15.6 Safari/605.1.15","Macintosh","Safari","15.6","OS X","10_15_7","[0]","","60","3",""
"2860","You drop a bowling ball on a tomato <br> T&uacute tiras una bola de boliche a un tomate","{""Q0"":4}","trial","23077","survey-likert","60","400004","0.0-5.0-0.48","52","1","2022-11-29 21:25:27","2df368f4e41f066fd1c82c297b4a1108","88.21.15.54","Mozilla/5.0 (Macintosh; Intel Mac OS X 10_15_7) AppleWebKit/605.1.15 (KHTML, like Gecko) Version/15.6 Safari/605.1.15","Macintosh","Safari","15.6","OS X","10_15_7","[0]","","23","4",""
"3068","You drop a bowling ball on a donut <br> T&uacute tiras una bola de boliche a una rosquilla","{""Q0"":3}","trial","23077","survey-likert","61","403075","0.0-5.0-0.49","52","1","2022-11-29 21:25:27","2df368f4e41f066fd1c82c297b4a1108","88.21.15.54","Mozilla/5.0 (Macintosh; Intel Mac OS X 10_15_7) AppleWebKit/605.1.15 (KHTML, like Gecko) Version/15.6 Safari/605.1.15","Macintosh","Safari","15.6","OS X","10_15_7","[0]","","17","3",""
"2520","You drop a bowling ball on a strawberry <br> T&uacute tiras una bola de boliche a una fresa","{""Q0"":4}","trial","23077","survey-likert","62","405598","0.0-5.0-0.50","52","1","2022-11-29 21:25:27","2df368f4e41f066fd1c82c297b4a1108","88.21.15.54","Mozilla/5.0 (Macintosh; Intel Mac OS X 10_15_7) AppleWebKit/605.1.15 (KHTML, like Gecko) Version/15.6 Safari/605.1.15","Macintosh","Safari","15.6","OS X","10_15_7","[0]","","20","4",""
"4462","You see how a teenage girl is playing the piano <br> T&uacute ves como una ni&ntildea adolescente est&aacute tocando el piano","{""Q0"":3}","trial","23077","survey-likert","63","410063","0.0-5.0-0.51","52","1","2022-11-29 21:25:27","2df368f4e41f066fd1c82c297b4a1108","88.21.15.54","Mozilla/5.0 (Macintosh; Intel Mac OS X 10_15_7) AppleWebKit/605.1.15 (KHTML, like Gecko) Version/15.6 Safari/605.1.15","Macintosh","Safari","15.6","OS X","10_15_7","[0]","","54","3",""
"18918","You drop a bowling ball on an egg <br> T&uacute tiras una bola de boliche a un huevo","{""Q0"":4}","trial","23077","survey-likert","64","428984","0.0-5.0-0.52","52","1","2022-11-29 21:25:27","2df368f4e41f066fd1c82c297b4a1108","88.21.15.54","Mozilla/5.0 (Macintosh; Intel Mac OS X 10_15_7) AppleWebKit/605.1.15 (KHTML, like Gecko) Version/15.6 Safari/605.1.15","Macintosh","Safari","15.6","OS X","10_15_7","[0]","","6","4",""
"3770","You see how a postman is driving a car <br> T&uacute ves como un cartero est&aacute conduciendo un coche","{""Q0"":3}","trial","23077","survey-likert","65","432757","0.0-5.0-0.53","52","1","2022-11-29 21:25:27","2df368f4e41f066fd1c82c297b4a1108","88.21.15.54","Mozilla/5.0 (Macintosh; Intel Mac OS X 10_15_7) AppleWebKit/605.1.15 (KHTML, like Gecko) Version/15.6 Safari/605.1.15","Macintosh","Safari","15.6","OS X","10_15_7","[0]","","32","3",""
"6414","You drop a watch on the laptop <br> T&uacute tiras un reloj al port&aacutetil","{""Q0"":4}","trial","23077","survey-likert","66","439174","0.0-5.0-0.54","52","1","2022-11-29 21:25:27","2df368f4e41f066fd1c82c297b4a1108","88.21.15.54","Mozilla/5.0 (Macintosh; Intel Mac OS X 10_15_7) AppleWebKit/605.1.15 (KHTML, like Gecko) Version/15.6 Safari/605.1.15","Macintosh","Safari","15.6","OS X","10_15_7","[0]","","37","4",""
"2162","You drop a cabbage on the table <br> T&uacute tiras una col a la mesa","{""Q0"":4}","trial","23077","survey-likert","67","441338","0.0-5.0-0.55","52","1","2022-11-29 21:25:27","2df368f4e41f066fd1c82c297b4a1108","88.21.15.54","Mozilla/5.0 (Macintosh; Intel Mac OS X 10_15_7) AppleWebKit/605.1.15 (KHTML, like Gecko) Version/15.6 Safari/605.1.15","Macintosh","Safari","15.6","OS X","10_15_7","[0]","","35","4",""
"5813","You drop a bowling ball on a chocolate muffin <br> T&uacute tiras una bola de boliche a una magdalena de chocolate","{""Q0"":4}","trial","23077","survey-likert","68","447154","0.0-5.0-0.56","52","1","2022-11-29 21:25:27","2df368f4e41f066fd1c82c297b4a1108","88.21.15.54","Mozilla/5.0 (Macintosh; Intel Mac OS X 10_15_7) AppleWebKit/605.1.15 (KHTML, like Gecko) Version/15.6 Safari/605.1.15","Macintosh","Safari","15.6","OS X","10_15_7","[0]","","16","4",""
"4271","You see how a musician is playing a guitar <br> T&uacute ves como un m&uacutesico est&aacute tocando la guitarra","{""Q0"":3}","trial","23077","survey-likert","69","451428","0.0-5.0-0.57","52","1","2022-11-29 21:25:27","2df368f4e41f066fd1c82c297b4a1108","88.21.15.54","Mozilla/5.0 (Macintosh; Intel Mac OS X 10_15_7) AppleWebKit/605.1.15 (KHTML, like Gecko) Version/15.6 Safari/605.1.15","Macintosh","Safari","15.6","OS X","10_15_7","[0]","","27","3",""
"5889","You see how a police officer is talking on the phone <br> T&uacute ves como un polic&iacutea est&aacute hablando por el tel&eacutefono","{""Q0"":3}","trial","23077","survey-likert","70","457319","0.0-5.0-0.58","52","1","2022-11-29 21:25:27","2df368f4e41f066fd1c82c297b4a1108","88.21.15.54","Mozilla/5.0 (Macintosh; Intel Mac OS X 10_15_7) AppleWebKit/605.1.15 (KHTML, like Gecko) Version/15.6 Safari/605.1.15","Macintosh","Safari","15.6","OS X","10_15_7","[0]","","62","3",""
"3561","You see how a woman is taking money out of a wallet <br> T&uacute ves como una mujer est&aacute sacando dinero de su billetera","{""Q0"":3}","trial","23077","survey-likert","71","460883","0.0-5.0-0.59","52","1","2022-11-29 21:25:27","2df368f4e41f066fd1c82c297b4a1108","88.21.15.54","Mozilla/5.0 (Macintosh; Intel Mac OS X 10_15_7) AppleWebKit/605.1.15 (KHTML, like Gecko) Version/15.6 Safari/605.1.15","Macintosh","Safari","15.6","OS X","10_15_7","[0]","","44","3",""
"3663","You see how a dentist is drinking a can of cola <br> T&uacute ves como un dentista est&aacute bebiendo una lata de cola","{""Q0"":3}","trial","23077","survey-likert","72","464551","0.0-5.0-0.60","52","1","2022-11-29 21:25:27","2df368f4e41f066fd1c82c297b4a1108","88.21.15.54","Mozilla/5.0 (Macintosh; Intel Mac OS X 10_15_7) AppleWebKit/605.1.15 (KHTML, like Gecko) Version/15.6 Safari/605.1.15","Macintosh","Safari","15.6","OS X","10_15_7","[0]","","47","3",""
"5945","You drop a bowling ball on an iPAD <br> T&uacute tiras una bola de boliche a un iPad","{""Q0"":4}","trial","23077","survey-likert","73","470499","0.0-5.0-0.61","52","1","2022-11-29 21:25:27","2df368f4e41f066fd1c82c297b4a1108","88.21.15.54","Mozilla/5.0 (Macintosh; Intel Mac OS X 10_15_7) AppleWebKit/605.1.15 (KHTML, like Gecko) Version/15.6 Safari/605.1.15","Macintosh","Safari","15.6","OS X","10_15_7","[0]","","12","4",""
"4051","You drop a thermometer on the box <br> T&uacute tiras un term&oacutemetro a la caja","{""Q0"":4}","trial","23077","survey-likert","74","474553","0.0-5.0-0.62","52","1","2022-11-29 21:25:27","2df368f4e41f066fd1c82c297b4a1108","88.21.15.54","Mozilla/5.0 (Macintosh; Intel Mac OS X 10_15_7) AppleWebKit/605.1.15 (KHTML, like Gecko) Version/15.6 Safari/605.1.15","Macintosh","Safari","15.6","OS X","10_15_7","[0]","","70","4",""
"6986","You drop a bowling ball on a cracker <br> T&uacute tiras una bola de boliche a una galleta","{""Q0"":3}","trial","23077","survey-likert","75","481542","0.0-5.0-0.63","52","1","2022-11-29 21:25:27","2df368f4e41f066fd1c82c297b4a1108","88.21.15.54","Mozilla/5.0 (Macintosh; Intel Mac OS X 10_15_7) AppleWebKit/605.1.15 (KHTML, like Gecko) Version/15.6 Safari/605.1.15","Macintosh","Safari","15.6","OS X","10_15_7","[0]","","4","3",""
"8125","You drop a bowling ball on an egg flan <br> T&uacute tiras una bola de boliche a un flan","{""Q0"":1}","trial","23077","survey-likert","76","489670","0.0-5.0-0.64","52","1","2022-11-29 21:25:27","2df368f4e41f066fd1c82c297b4a1108","88.21.15.54","Mozilla/5.0 (Macintosh; Intel Mac OS X 10_15_7) AppleWebKit/605.1.15 (KHTML, like Gecko) Version/15.6 Safari/605.1.15","Macintosh","Safari","15.6","OS X","10_15_7","[0]","","7","1",""
"11140","You drop a bowling ball on an egg flan <br> T&uacute tiras una bola de boliche a un flan","{""Q0"":""Tú tiras una bola de boliche a un flan de huevo.""}","low_rate","23077","survey-text","77","500820","0.0-5.0-1.64-0.64","52","1","2022-11-29 21:25:27","2df368f4e41f066fd1c82c297b4a1108","88.21.15.54","Mozilla/5.0 (Macintosh; Intel Mac OS X 10_15_7) AppleWebKit/605.1.15 (KHTML, like Gecko) Version/15.6 Safari/605.1.15","Macintosh","Safari","15.6","OS X","10_15_7","","","7","",""
"4041","You drop a toothbrush on the sponge <br> T&uacute tiras un cepillo de dientes en la esponja","{""Q0"":4}","trial","23077","survey-likert","78","504864","0.0-5.0-0.65","52","1","2022-11-29 21:25:27","2df368f4e41f066fd1c82c297b4a1108","88.21.15.54","Mozilla/5.0 (Macintosh; Intel Mac OS X 10_15_7) AppleWebKit/605.1.15 (KHTML, like Gecko) Version/15.6 Safari/605.1.15","Macintosh","Safari","15.6","OS X","10_15_7","[0]","","25","4",""
"5912","You see how a horse is chewing hay <br> T&uacute ves como un caballo est&aacute masticando el heno","{""Q0"":3}","trial","23077","survey-likert","79","510778","0.0-5.0-0.66","52","1","2022-11-29 21:25:27","2df368f4e41f066fd1c82c297b4a1108","88.21.15.54","Mozilla/5.0 (Macintosh; Intel Mac OS X 10_15_7) AppleWebKit/605.1.15 (KHTML, like Gecko) Version/15.6 Safari/605.1.15","Macintosh","Safari","15.6","OS X","10_15_7","[0]","","55","3",""
"3624","You drop a bowling ball on an empty can of beer <br> T&uacute tiras una bola de boliche a una lata de cerveza vac&iacutea","{""Q0"":4}","trial","23077","survey-likert","80","514405","0.0-5.0-0.67","52","1","2022-11-29 21:25:27","2df368f4e41f066fd1c82c297b4a1108","88.21.15.54","Mozilla/5.0 (Macintosh; Intel Mac OS X 10_15_7) AppleWebKit/605.1.15 (KHTML, like Gecko) Version/15.6 Safari/605.1.15","Macintosh","Safari","15.6","OS X","10_15_7","[0]","","3","4",""
"3881","You see how a woman is paying with a debit card <br> T&uacute ves como una mujer est&aacute pagando con una tarjeta de d&eacutebito","{""Q0"":3}","trial","23077","survey-likert","81","518290","0.0-5.0-0.68","52","1","2022-11-29 21:25:27","2df368f4e41f066fd1c82c297b4a1108","88.21.15.54","Mozilla/5.0 (Macintosh; Intel Mac OS X 10_15_7) AppleWebKit/605.1.15 (KHTML, like Gecko) Version/15.6 Safari/605.1.15","Macintosh","Safari","15.6","OS X","10_15_7","[0]","","64","3",""
"3198","You see how a man is playing with a cat <br> T&uacute ves como un hombre est&aacute jugando con un gato","{""Q0"":3}","trial","23077","survey-likert","82","521491","0.0-5.0-0.69","52","1","2022-11-29 21:25:27","2df368f4e41f066fd1c82c297b4a1108","88.21.15.54","Mozilla/5.0 (Macintosh; Intel Mac OS X 10_15_7) AppleWebKit/605.1.15 (KHTML, like Gecko) Version/15.6 Safari/605.1.15","Macintosh","Safari","15.6","OS X","10_15_7","[0]","","67","3",""
"3827","You see how a student is writing on a board <br> T&uacute ves como un estudiante est&aacute escribiendo en la pizarra","{""Q0"":3}","trial","23077","survey-likert","83","525321","0.0-5.0-0.70","52","1","2022-11-29 21:25:27","2df368f4e41f066fd1c82c297b4a1108","88.21.15.54","Mozilla/5.0 (Macintosh; Intel Mac OS X 10_15_7) AppleWebKit/605.1.15 (KHTML, like Gecko) Version/15.6 Safari/605.1.15","Macintosh","Safari","15.6","OS X","10_15_7","[0]","","50","3",""
"8311","You see how a zebra is playing with a horse <br> T&uacute ves como una cebra est&aacute jugando con un caballo","{""Q0"":3}","trial","23077","survey-likert","84","533635","0.0-5.0-0.71","52","1","2022-11-29 21:25:27","2df368f4e41f066fd1c82c297b4a1108","88.21.15.54","Mozilla/5.0 (Macintosh; Intel Mac OS X 10_15_7) AppleWebKit/605.1.15 (KHTML, like Gecko) Version/15.6 Safari/605.1.15","Macintosh","Safari","15.6","OS X","10_15_7","[0]","","66","3",""
"5896","
    <p style=""font-size:20px;""> You have completed the experiment portion! </p>
    <p style=""font-size:20px;""> Before you are done, we would like you to answer some basic demographic questions. </p>
    <p style=""font-size:20px;""> Note that your answers to these questions will not affect your compensation/credit. </p>
    <p style=""font-size:20px;""> Click the button below to continue.</p>
    ","0","demo","23077","html-button-response","85","539534","0.0-6.0","52","1","2022-11-29 21:25:27","2df368f4e41f066fd1c82c297b4a1108","88.21.15.54","Mozilla/5.0 (Macintosh; Intel Mac OS X 10_15_7) AppleWebKit/605.1.15 (KHTML, like Gecko) Version/15.6 Safari/605.1.15","Macintosh","Safari","15.6","OS X","10_15_7","","","","",""
"25733","","{""Age"":""26"",""Gender"":""Female"",""Education"":""20""}","demo","23077","survey-text","86","565273","0.0-7.0-0.0","52","1","2022-11-29 21:25:27","2df368f4e41f066fd1c82c297b4a1108","88.21.15.54","Mozilla/5.0 (Macintosh; Intel Mac OS X 10_15_7) AppleWebKit/605.1.15 (KHTML, like Gecko) Version/15.6 Safari/605.1.15","Macintosh","Safari","15.6","OS X","10_15_7","","","","",""
"6776","","{""Race"":[""White/Caucasian""]}","demo","23077","survey-multi-select","87","572053","0.0-7.0-1.0","52","1","2022-11-29 21:25:27","2df368f4e41f066fd1c82c297b4a1108","88.21.15.54","Mozilla/5.0 (Macintosh; Intel Mac OS X 10_15_7) AppleWebKit/605.1.15 (KHTML, like Gecko) Version/15.6 Safari/605.1.15","Macintosh","Safari","15.6","OS X","10_15_7","[0]","","","",""
"13117","","{""Latino"":""Yes"",""Alert"":""No Differences""}","demo","23077","survey-multi-choice","88","585174","0.0-7.0-2.0","52","1","2022-11-29 21:25:27","2df368f4e41f066fd1c82c297b4a1108","88.21.15.54","Mozilla/5.0 (Macintosh; Intel Mac OS X 10_15_7) AppleWebKit/605.1.15 (KHTML, like Gecko) Version/15.6 Safari/605.1.15","Macintosh","Safari","15.6","OS X","10_15_7","[0,1]","","","",""
"6558","","{""Q0"":""No""}","demo","23077","survey-text","89","591739","0.0-7.0-3.0","52","1","2022-11-29 21:25:27","2df368f4e41f066fd1c82c297b4a1108","88.21.15.54","Mozilla/5.0 (Macintosh; Intel Mac OS X 10_15_7) AppleWebKit/605.1.15 (KHTML, like Gecko) Version/15.6 Safari/605.1.15","Macintosh","Safari","15.6","OS X","10_15_7","","","","",""
"21132","<p>Thank you for participating! </p><strong>Your completion code is: CXEJB7NH. Please copy-paste this code and submit it on Prolific.</strong><p>Click <a href=""https://drive.google.com/file/d/1c70cdHFlc0AaR6RujLWLJwWkv1RbHQJY/view?usp=sharing"" target=""_blank"" rel=""noopener noreferrer"">here</a> to access the debriefing form and know more about our research. <p> Please click the button below to finish the experiment and save your data.</p> <p> IMPORTANT: Please <strong>do not leave this page </strong> without clicking the button below.</p> <p> You may close the tab/window after you click the button below.","0","","","html-button-response","90","612872","0.0-8.0","52","1","2022-11-29 21:25:27","2df368f4e41f066fd1c82c297b4a1108","88.21.15.54","Mozilla/5.0 (Macintosh; Intel Mac OS X 10_15_7) AppleWebKit/605.1.15 (KHTML, like Gecko) Version/15.6 Safari/605.1.15","Macintosh","Safari","15.6","OS X","10_15_7","","","","",""
