"rt","stimulus","response","typeoftrial","subject","trial_type","trial_index","time_elapsed","internal_node_id","run_id","condition","recorded_at","source_code_version","ip","user_agent","device","browser","browser_version","platform","platform_version","question_order","practice_rating","sentence_num","rating","Experiment"
"17159","
        <p style=""font-size:20px;""> Welcome! Thank you for your interest in our study. </p>
        <p style=""font-size:20px;""> This study is being conducted by researchers at Bowdoin College.</p>
        <p style=""font-size:20px;""> In this experiment, you will be asked to rate the accuracy of English and Spanish translations.</p>
        <p style=""font-size:20px;""> The entire experiment should not last more than 20 minutes. You will be paid $3 USD for your participation. </p>
        <p style=""font-size:20px;""> Please click <a href = ""https://drive.google.com/file/d/1L92a02eEKCpaAEipmqDcBCDR7rsarqFE/view?usp=sharing"" target = ""_blank"">here</a> to read the full consent form. </p>
        <p style=""font-size:20px;""> If you agree to participate, please click the button below to continue to experiment instructions.</p>
        ","0","consent","8146","html-button-response","0","17165","0.0-0.0","44","1","2022-11-29 21:25:09","2df368f4e41f066fd1c82c297b4a1108","132.247.249.242","Mozilla/5.0 (Windows NT 10.0; Win64; x64) AppleWebKit/537.36 (KHTML, like Gecko) Chrome/107.0.0.0 Safari/537.36 Edg/107.0.1418.56","WebKit","Edge","107.0.1418.56","Windows","10.0","","","","",""
"6670","","{""ID"":""5f120bfe1a1a2c120f3dd9f3""}","ID","8146","survey-text","1","23849","0.0-1.0","44","1","2022-11-29 21:25:09","2df368f4e41f066fd1c82c297b4a1108","132.247.249.242","Mozilla/5.0 (Windows NT 10.0; Win64; x64) AppleWebKit/537.36 (KHTML, like Gecko) Chrome/107.0.0.0 Safari/537.36 Edg/107.0.1418.56","WebKit","Edge","107.0.1418.56","Windows","10.0","","","","",""
"14850","
        <p style=""font-size:20px;""> You are about to begin the practice test. </p>
        <p style=""font-size:20px;""> On each trial, you will see a sentence in English and its corresponding Spanish translation. </p>
        <p style=""font-size:20px;""> You will rate the accuracy of the translation on a scale from ""Not at all accurate"" to ""Very accurate."" </p>
        <p style=""font-size:20px;""> If you rate the translation as ""Somewhat innaccurate"" or ""Not at all accurate,"" you will be asked to provide your own translation or a reason why the translation is inaccurate. </p>
        <p style=""font-size:20px;""> Click the button below to continue to the practice session.</p>","0","instructions","8146","html-button-response","2","38701","0.0-2.0","44","1","2022-11-29 21:25:09","2df368f4e41f066fd1c82c297b4a1108","132.247.249.242","Mozilla/5.0 (Windows NT 10.0; Win64; x64) AppleWebKit/537.36 (KHTML, like Gecko) Chrome/107.0.0.0 Safari/537.36 Edg/107.0.1418.56","WebKit","Edge","107.0.1418.56","Windows","10.0","","","","",""
"304103","You see how a teacher is drawing a picture <br> T&uacute ves como un maestro pinta una foto","{""Q0"":2}","practice","8146","survey-likert","3","342806","0.0-3.0-0.0","44","1","2022-11-29 21:25:09","2df368f4e41f066fd1c82c297b4a1108","132.247.249.242","Mozilla/5.0 (Windows NT 10.0; Win64; x64) AppleWebKit/537.36 (KHTML, like Gecko) Chrome/107.0.0.0 Safari/537.36 Edg/107.0.1418.56","WebKit","Edge","107.0.1418.56","Windows","10.0","[0]","2","","",""
"9022","You see how an artist is running <br> T&uacute ves como un artista est&aacute corriendo","{""Q0"":2}","practice","8146","survey-likert","4","351834","0.0-3.0-0.1","44","1","2022-11-29 21:25:09","2df368f4e41f066fd1c82c297b4a1108","132.247.249.242","Mozilla/5.0 (Windows NT 10.0; Win64; x64) AppleWebKit/537.36 (KHTML, like Gecko) Chrome/107.0.0.0 Safari/537.36 Edg/107.0.1418.56","WebKit","Edge","107.0.1418.56","Windows","10.0","[0]","2","","",""
"7649","You see how a duck is playing with a pumpkin <br> T&uacute ves como un pato est&aacute jugando con una calabaza","{""Q0"":2}","practice","8146","survey-likert","5","359487","0.0-3.0-0.2","44","1","2022-11-29 21:25:09","2df368f4e41f066fd1c82c297b4a1108","132.247.249.242","Mozilla/5.0 (Windows NT 10.0; Win64; x64) AppleWebKit/537.36 (KHTML, like Gecko) Chrome/107.0.0.0 Safari/537.36 Edg/107.0.1418.56","WebKit","Edge","107.0.1418.56","Windows","10.0","[0]","2","","",""
"8608","You drop a rock on a phone <br> T&uacute tiras una piedra a un tel&eacutefono","{""Q0"":4}","practice","8146","survey-likert","6","368100","0.0-3.0-0.3","44","1","2022-11-29 21:25:09","2df368f4e41f066fd1c82c297b4a1108","132.247.249.242","Mozilla/5.0 (Windows NT 10.0; Win64; x64) AppleWebKit/537.36 (KHTML, like Gecko) Chrome/107.0.0.0 Safari/537.36 Edg/107.0.1418.56","WebKit","Edge","107.0.1418.56","Windows","10.0","[0]","4","","",""
"15143","You see how a tiger is playing with a goose <br> T&uacute ves como un le&oacuten come una pizza","{""Q0"":0}","practice","8146","survey-likert","7","383247","0.0-3.0-0.4","44","1","2022-11-29 21:25:09","2df368f4e41f066fd1c82c297b4a1108","132.247.249.242","Mozilla/5.0 (Windows NT 10.0; Win64; x64) AppleWebKit/537.36 (KHTML, like Gecko) Chrome/107.0.0.0 Safari/537.36 Edg/107.0.1418.56","WebKit","Edge","107.0.1418.56","Windows","10.0","[0]","0","","",""
"42806","You see how a tiger is playing with a goose <br> T&uacute ves como un le&oacuten come una pizza","{""Q0"":""where did it say \""pizza\"" ?""}","practice_low_rate","8146","survey-text","8","426061","0.0-3.0-1.4-0.4","44","1","2022-11-29 21:25:09","2df368f4e41f066fd1c82c297b4a1108","132.247.249.242","Mozilla/5.0 (Windows NT 10.0; Win64; x64) AppleWebKit/537.36 (KHTML, like Gecko) Chrome/107.0.0.0 Safari/537.36 Edg/107.0.1418.56","WebKit","Edge","107.0.1418.56","Windows","10.0","","","5","",""
"27725","You drop a bowling ball on a mircrowave <br> T&uacute tiras una bola de boliche a un horno","{""Q0"":3}","practice","8146","survey-likert","9","453789","0.0-3.0-0.5","44","1","2022-11-29 21:25:09","2df368f4e41f066fd1c82c297b4a1108","132.247.249.242","Mozilla/5.0 (Windows NT 10.0; Win64; x64) AppleWebKit/537.36 (KHTML, like Gecko) Chrome/107.0.0.0 Safari/537.36 Edg/107.0.1418.56","WebKit","Edge","107.0.1418.56","Windows","10.0","[0]","3","","",""
"2120","<p style=""font-size:20px;"">You have now completed the practice session! </p>
        <p style=""font-size:20px;"">You will now move on to the main experiment. </p>
        <p style=""font-size:20px;"">Please click the button below to continue. </p>","0","movetoexp","8146","html-button-response","10","455913","0.0-4.0","44","1","2022-11-29 21:25:09","2df368f4e41f066fd1c82c297b4a1108","132.247.249.242","Mozilla/5.0 (Windows NT 10.0; Win64; x64) AppleWebKit/537.36 (KHTML, like Gecko) Chrome/107.0.0.0 Safari/537.36 Edg/107.0.1418.56","WebKit","Edge","107.0.1418.56","Windows","10.0","","","","",""
"10605","You drop a ring on the newspaper <br> T&uacute tiras un anillo al peri&oacutedico","{""Q0"":4}","trial","8146","survey-likert","11","466520","0.0-5.0-0.0","44","1","2022-11-29 21:25:09","2df368f4e41f066fd1c82c297b4a1108","132.247.249.242","Mozilla/5.0 (Windows NT 10.0; Win64; x64) AppleWebKit/537.36 (KHTML, like Gecko) Chrome/107.0.0.0 Safari/537.36 Edg/107.0.1418.56","WebKit","Edge","107.0.1418.56","Windows","10.0","[0]","","41","4",""
"10333","You see how a cook is taking a knife <br> T&uacute ves como un cocinero est&aacute agarrando un cuchillo","{""Q0"":4}","trial","8146","survey-likert","12","476859","0.0-5.0-0.1","44","1","2022-11-29 21:25:09","2df368f4e41f066fd1c82c297b4a1108","132.247.249.242","Mozilla/5.0 (Windows NT 10.0; Win64; x64) AppleWebKit/537.36 (KHTML, like Gecko) Chrome/107.0.0.0 Safari/537.36 Edg/107.0.1418.56","WebKit","Edge","107.0.1418.56","Windows","10.0","[0]","","71","4",""
"4259","You drop a bowling ball on a mirror <br> T&uacute tiras una bola de boliche a un espejo","{""Q0"":4}","trial","8146","survey-likert","13","481123","0.0-5.0-0.2","44","1","2022-11-29 21:25:09","2df368f4e41f066fd1c82c297b4a1108","132.247.249.242","Mozilla/5.0 (Windows NT 10.0; Win64; x64) AppleWebKit/537.36 (KHTML, like Gecko) Chrome/107.0.0.0 Safari/537.36 Edg/107.0.1418.56","WebKit","Edge","107.0.1418.56","Windows","10.0","[0]","","15","4",""
"20196","You see how a nurse is taking a syringe <br> T&uacute ves como una enfermera est&aacute agarrando una jeringuilla","{""Q0"":4}","trial","8146","survey-likert","14","501324","0.0-5.0-0.3","44","1","2022-11-29 21:25:09","2df368f4e41f066fd1c82c297b4a1108","132.247.249.242","Mozilla/5.0 (Windows NT 10.0; Win64; x64) AppleWebKit/537.36 (KHTML, like Gecko) Chrome/107.0.0.0 Safari/537.36 Edg/107.0.1418.56","WebKit","Edge","107.0.1418.56","Windows","10.0","[0]","","48","4",""
"6480","You drop a bowling ball on an iPhone <br> T&uacute tiras una bola de boliche a un iPhone","{""Q0"":4}","trial","8146","survey-likert","15","507808","0.0-5.0-0.4","44","1","2022-11-29 21:25:09","2df368f4e41f066fd1c82c297b4a1108","132.247.249.242","Mozilla/5.0 (Windows NT 10.0; Win64; x64) AppleWebKit/537.36 (KHTML, like Gecko) Chrome/107.0.0.0 Safari/537.36 Edg/107.0.1418.56","WebKit","Edge","107.0.1418.56","Windows","10.0","[0]","","13","4",""
"7159","You drop a bowling ball on an egg <br> T&uacute tiras una bola de boliche a un huevo","{""Q0"":4}","trial","8146","survey-likert","16","514972","0.0-5.0-0.5","44","1","2022-11-29 21:25:09","2df368f4e41f066fd1c82c297b4a1108","132.247.249.242","Mozilla/5.0 (Windows NT 10.0; Win64; x64) AppleWebKit/537.36 (KHTML, like Gecko) Chrome/107.0.0.0 Safari/537.36 Edg/107.0.1418.56","WebKit","Edge","107.0.1418.56","Windows","10.0","[0]","","6","4",""
"5934","You see how a panda is resting on a tree <br> T&uacute ves como un panda est&aacute descansando en un &aacuterbol","{""Q0"":4}","trial","8146","survey-likert","17","520911","0.0-5.0-0.6","44","1","2022-11-29 21:25:09","2df368f4e41f066fd1c82c297b4a1108","132.247.249.242","Mozilla/5.0 (Windows NT 10.0; Win64; x64) AppleWebKit/537.36 (KHTML, like Gecko) Chrome/107.0.0.0 Safari/537.36 Edg/107.0.1418.56","WebKit","Edge","107.0.1418.56","Windows","10.0","[0]","","57","4",""
"6719","You drop a bowling ball on a donut <br> T&uacute tiras una bola de boliche a una rosquilla","{""Q0"":4}","trial","8146","survey-likert","18","527635","0.0-5.0-0.7","44","1","2022-11-29 21:25:09","2df368f4e41f066fd1c82c297b4a1108","132.247.249.242","Mozilla/5.0 (Windows NT 10.0; Win64; x64) AppleWebKit/537.36 (KHTML, like Gecko) Chrome/107.0.0.0 Safari/537.36 Edg/107.0.1418.56","WebKit","Edge","107.0.1418.56","Windows","10.0","[0]","","17","4",""
"11168","You see how a man is boiling potatoes <br> T&uacute ves a un hombre est&aacute hirviendo papas","{""Q0"":1}","trial","8146","survey-likert","19","538808","0.0-5.0-0.8","44","1","2022-11-29 21:25:09","2df368f4e41f066fd1c82c297b4a1108","132.247.249.242","Mozilla/5.0 (Windows NT 10.0; Win64; x64) AppleWebKit/537.36 (KHTML, like Gecko) Chrome/107.0.0.0 Safari/537.36 Edg/107.0.1418.56","WebKit","Edge","107.0.1418.56","Windows","10.0","[0]","","46","1",""
"16117","You see how a man is boiling potatoes <br> T&uacute ves a un hombre est&aacute hirviendo papas","{""Q0"":""Ves como un hombre está hirviendo patatas""}","low_rate","8146","survey-text","20","554930","0.0-5.0-1.8-0.8","44","1","2022-11-29 21:25:09","2df368f4e41f066fd1c82c297b4a1108","132.247.249.242","Mozilla/5.0 (Windows NT 10.0; Win64; x64) AppleWebKit/537.36 (KHTML, like Gecko) Chrome/107.0.0.0 Safari/537.36 Edg/107.0.1418.56","WebKit","Edge","107.0.1418.56","Windows","10.0","","","46","",""
"5528","You see how a musician is playing a guitar <br> T&uacute ves como un m&uacutesico est&aacute tocando la guitarra","{""Q0"":4}","trial","8146","survey-likert","21","560461","0.0-5.0-0.9","44","1","2022-11-29 21:25:09","2df368f4e41f066fd1c82c297b4a1108","132.247.249.242","Mozilla/5.0 (Windows NT 10.0; Win64; x64) AppleWebKit/537.36 (KHTML, like Gecko) Chrome/107.0.0.0 Safari/537.36 Edg/107.0.1418.56","WebKit","Edge","107.0.1418.56","Windows","10.0","[0]","","27","4",""
"6584","You drop a bowling ball on an empty can of beer <br> T&uacute tiras una bola de boliche a una lata de cerveza vac&iacutea","{""Q0"":4}","trial","8146","survey-likert","22","567049","0.0-5.0-0.10","44","1","2022-11-29 21:25:09","2df368f4e41f066fd1c82c297b4a1108","132.247.249.242","Mozilla/5.0 (Windows NT 10.0; Win64; x64) AppleWebKit/537.36 (KHTML, like Gecko) Chrome/107.0.0.0 Safari/537.36 Edg/107.0.1418.56","WebKit","Edge","107.0.1418.56","Windows","10.0","[0]","","3","4",""
"43412","You see how a postman is driving a car <br> T&uacute ves como un cartero est&aacute conduciendo un coche","{""Q0"":4}","trial","8146","survey-likert","23","610468","0.0-5.0-0.11","44","1","2022-11-29 21:25:09","2df368f4e41f066fd1c82c297b4a1108","132.247.249.242","Mozilla/5.0 (Windows NT 10.0; Win64; x64) AppleWebKit/537.36 (KHTML, like Gecko) Chrome/107.0.0.0 Safari/537.36 Edg/107.0.1418.56","WebKit","Edge","107.0.1418.56","Windows","10.0","[0]","","32","4",""
"5612","You drop a bowling ball on a strawberry <br> T&uacute tiras una bola de boliche a una fresa","{""Q0"":4}","trial","8146","survey-likert","24","616085","0.0-5.0-0.12","44","1","2022-11-29 21:25:09","2df368f4e41f066fd1c82c297b4a1108","132.247.249.242","Mozilla/5.0 (Windows NT 10.0; Win64; x64) AppleWebKit/537.36 (KHTML, like Gecko) Chrome/107.0.0.0 Safari/537.36 Edg/107.0.1418.56","WebKit","Edge","107.0.1418.56","Windows","10.0","[0]","","20","4",""
"6170","You drop a bowling ball on a paper cup <br> T&uacute tiras una bola de boliche a un vaso de papel","{""Q0"":4}","trial","8146","survey-likert","25","622260","0.0-5.0-0.13","44","1","2022-11-29 21:25:09","2df368f4e41f066fd1c82c297b4a1108","132.247.249.242","Mozilla/5.0 (Windows NT 10.0; Win64; x64) AppleWebKit/537.36 (KHTML, like Gecko) Chrome/107.0.0.0 Safari/537.36 Edg/107.0.1418.56","WebKit","Edge","107.0.1418.56","Windows","10.0","[0]","","24","4",""
"12192","You drop a bowling ball on glasses <br> T&uacute tiras una bola de boliche a unas gafas","{""Q0"":4}","trial","8146","survey-likert","26","634457","0.0-5.0-0.14","44","1","2022-11-29 21:25:09","2df368f4e41f066fd1c82c297b4a1108","132.247.249.242","Mozilla/5.0 (Windows NT 10.0; Win64; x64) AppleWebKit/537.36 (KHTML, like Gecko) Chrome/107.0.0.0 Safari/537.36 Edg/107.0.1418.56","WebKit","Edge","107.0.1418.56","Windows","10.0","[0]","","9","4",""
"4395","You see how a mouse is eating cheese <br> T&uacute ves como el rat&oacuten est&aacute comiendo queso","{""Q0"":4}","trial","8146","survey-likert","27","638857","0.0-5.0-0.15","44","1","2022-11-29 21:25:09","2df368f4e41f066fd1c82c297b4a1108","132.247.249.242","Mozilla/5.0 (Windows NT 10.0; Win64; x64) AppleWebKit/537.36 (KHTML, like Gecko) Chrome/107.0.0.0 Safari/537.36 Edg/107.0.1418.56","WebKit","Edge","107.0.1418.56","Windows","10.0","[0]","","56","4",""
"7803","You drop a bowling ball on a piece of cake <br> T&uacute tiras una bola de boliche a un trozo de pastel","{""Q0"":4}","trial","8146","survey-likert","28","646664","0.0-5.0-0.16","44","1","2022-11-29 21:25:09","2df368f4e41f066fd1c82c297b4a1108","132.247.249.242","Mozilla/5.0 (Windows NT 10.0; Win64; x64) AppleWebKit/537.36 (KHTML, like Gecko) Chrome/107.0.0.0 Safari/537.36 Edg/107.0.1418.56","WebKit","Edge","107.0.1418.56","Windows","10.0","[0]","","2","4",""
"6924","You see how a horse is chewing hay <br> T&uacute ves como un caballo est&aacute masticando el heno","{""Q0"":4}","trial","8146","survey-likert","29","653593","0.0-5.0-0.17","44","1","2022-11-29 21:25:09","2df368f4e41f066fd1c82c297b4a1108","132.247.249.242","Mozilla/5.0 (Windows NT 10.0; Win64; x64) AppleWebKit/537.36 (KHTML, like Gecko) Chrome/107.0.0.0 Safari/537.36 Edg/107.0.1418.56","WebKit","Edge","107.0.1418.56","Windows","10.0","[0]","","55","4",""
"16042","You drop a bowling ball on a chocolate ice-cream <br> T&uacute tiras una bola de boliche a un helado de chocolate","{""Q0"":4}","trial","8146","survey-likert","30","669640","0.0-5.0-0.18","44","1","2022-11-29 21:25:09","2df368f4e41f066fd1c82c297b4a1108","132.247.249.242","Mozilla/5.0 (Windows NT 10.0; Win64; x64) AppleWebKit/537.36 (KHTML, like Gecko) Chrome/107.0.0.0 Safari/537.36 Edg/107.0.1418.56","WebKit","Edge","107.0.1418.56","Windows","10.0","[0]","","11","4",""
"8268","You see how a cat is drinking water from a bowl <br> T&uacute ves como un gato est&aacute bebiendo agua de un cuenco","{""Q0"":4}","trial","8146","survey-likert","31","677914","0.0-5.0-0.19","44","1","2022-11-29 21:25:09","2df368f4e41f066fd1c82c297b4a1108","132.247.249.242","Mozilla/5.0 (Windows NT 10.0; Win64; x64) AppleWebKit/537.36 (KHTML, like Gecko) Chrome/107.0.0.0 Safari/537.36 Edg/107.0.1418.56","WebKit","Edge","107.0.1418.56","Windows","10.0","[0]","","28","4",""
"4574","You see how a giraffe is playing with a zebra <br> T&uacute ves como una jirafa est&aacute jugando con una cebra","{""Q0"":4}","trial","8146","survey-likert","32","682493","0.0-5.0-0.20","44","1","2022-11-29 21:25:09","2df368f4e41f066fd1c82c297b4a1108","132.247.249.242","Mozilla/5.0 (Windows NT 10.0; Win64; x64) AppleWebKit/537.36 (KHTML, like Gecko) Chrome/107.0.0.0 Safari/537.36 Edg/107.0.1418.56","WebKit","Edge","107.0.1418.56","Windows","10.0","[0]","","65","4",""
"3568","You see how an astronaut is putting on a space suit <br> T&uacute ves como un astronauta se est&aacute poniendo su traje espacial","{""Q0"":4}","trial","8146","survey-likert","33","686067","0.0-5.0-0.21","44","1","2022-11-29 21:25:09","2df368f4e41f066fd1c82c297b4a1108","132.247.249.242","Mozilla/5.0 (Windows NT 10.0; Win64; x64) AppleWebKit/537.36 (KHTML, like Gecko) Chrome/107.0.0.0 Safari/537.36 Edg/107.0.1418.56","WebKit","Edge","107.0.1418.56","Windows","10.0","[0]","","33","4",""
"3668","You drop a bowling ball on a piece of sushi <br> T&uacute tiras una bola de boliche a un pedazo de sushi","{""Q0"":4}","trial","8146","survey-likert","34","689741","0.0-5.0-0.22","44","1","2022-11-29 21:25:09","2df368f4e41f066fd1c82c297b4a1108","132.247.249.242","Mozilla/5.0 (Windows NT 10.0; Win64; x64) AppleWebKit/537.36 (KHTML, like Gecko) Chrome/107.0.0.0 Safari/537.36 Edg/107.0.1418.56","WebKit","Edge","107.0.1418.56","Windows","10.0","[0]","","21","4",""
"3574","You see how a man is playing with a cat <br> T&uacute ves como un hombre est&aacute jugando con un gato","{""Q0"":4}","trial","8146","survey-likert","35","693321","0.0-5.0-0.23","44","1","2022-11-29 21:25:09","2df368f4e41f066fd1c82c297b4a1108","132.247.249.242","Mozilla/5.0 (Windows NT 10.0; Win64; x64) AppleWebKit/537.36 (KHTML, like Gecko) Chrome/107.0.0.0 Safari/537.36 Edg/107.0.1418.56","WebKit","Edge","107.0.1418.56","Windows","10.0","[0]","","67","4",""
"4198","You see how a woman is taking money out of a wallet <br> T&uacute ves como una mujer est&aacute sacando dinero de su billetera","{""Q0"":4}","trial","8146","survey-likert","36","697526","0.0-5.0-0.24","44","1","2022-11-29 21:25:09","2df368f4e41f066fd1c82c297b4a1108","132.247.249.242","Mozilla/5.0 (Windows NT 10.0; Win64; x64) AppleWebKit/537.36 (KHTML, like Gecko) Chrome/107.0.0.0 Safari/537.36 Edg/107.0.1418.56","WebKit","Edge","107.0.1418.56","Windows","10.0","[0]","","44","4",""
"5748","You drop a bowling ball on a light bulb <br> T&uacute tiras una bola de boliche a una bombilla","{""Q0"":4}","trial","8146","survey-likert","37","703280","0.0-5.0-0.25","44","1","2022-11-29 21:25:09","2df368f4e41f066fd1c82c297b4a1108","132.247.249.242","Mozilla/5.0 (Windows NT 10.0; Win64; x64) AppleWebKit/537.36 (KHTML, like Gecko) Chrome/107.0.0.0 Safari/537.36 Edg/107.0.1418.56","WebKit","Edge","107.0.1418.56","Windows","10.0","[0]","","14","4",""
"5703","You see how a kitten is playing in the sandbox <br> T&uacute ves como un gatito est&aacute jugando en la caja de arena","{""Q0"":4}","trial","8146","survey-likert","38","708989","0.0-5.0-0.26","44","1","2022-11-29 21:25:09","2df368f4e41f066fd1c82c297b4a1108","132.247.249.242","Mozilla/5.0 (Windows NT 10.0; Win64; x64) AppleWebKit/537.36 (KHTML, like Gecko) Chrome/107.0.0.0 Safari/537.36 Edg/107.0.1418.56","WebKit","Edge","107.0.1418.56","Windows","10.0","[0]","","52","4",""
"6348","You see how an owl is sitting on the branch <br> T&uacute ves como un b&uacuteho est&aacute reposando en una rama","{""Q0"":4}","trial","8146","survey-likert","39","715343","0.0-5.0-0.27","44","1","2022-11-29 21:25:09","2df368f4e41f066fd1c82c297b4a1108","132.247.249.242","Mozilla/5.0 (Windows NT 10.0; Win64; x64) AppleWebKit/537.36 (KHTML, like Gecko) Chrome/107.0.0.0 Safari/537.36 Edg/107.0.1418.56","WebKit","Edge","107.0.1418.56","Windows","10.0","[0]","","69","4",""
"3680","You drop a fork on the plate <br> T&uacute tiras un tenedor al plato","{""Q0"":4}","trial","8146","survey-likert","40","719028","0.0-5.0-0.28","44","1","2022-11-29 21:25:09","2df368f4e41f066fd1c82c297b4a1108","132.247.249.242","Mozilla/5.0 (Windows NT 10.0; Win64; x64) AppleWebKit/537.36 (KHTML, like Gecko) Chrome/107.0.0.0 Safari/537.36 Edg/107.0.1418.56","WebKit","Edge","107.0.1418.56","Windows","10.0","[0]","","26","4",""
"3290","You see how a zebra is playing with a horse <br> T&uacute ves como una cebra est&aacute jugando con un caballo","{""Q0"":4}","trial","8146","survey-likert","41","722323","0.0-5.0-0.29","44","1","2022-11-29 21:25:09","2df368f4e41f066fd1c82c297b4a1108","132.247.249.242","Mozilla/5.0 (Windows NT 10.0; Win64; x64) AppleWebKit/537.36 (KHTML, like Gecko) Chrome/107.0.0.0 Safari/537.36 Edg/107.0.1418.56","WebKit","Edge","107.0.1418.56","Windows","10.0","[0]","","66","4",""
"2253","You drop a towel on the TV <br> T&uacute tiras una toalla a la televisi&oacuten","{""Q0"":4}","trial","8146","survey-likert","42","724582","0.0-5.0-0.30","44","1","2022-11-29 21:25:09","2df368f4e41f066fd1c82c297b4a1108","132.247.249.242","Mozilla/5.0 (Windows NT 10.0; Win64; x64) AppleWebKit/537.36 (KHTML, like Gecko) Chrome/107.0.0.0 Safari/537.36 Edg/107.0.1418.56","WebKit","Edge","107.0.1418.56","Windows","10.0","[0]","","53","4",""
"7124","You see how a police officer is talking on the phone <br> T&uacute ves como un polic&iacutea est&aacute hablando por el tel&eacutefono","{""Q0"":4}","trial","8146","survey-likert","43","731712","0.0-5.0-0.31","44","1","2022-11-29 21:25:09","2df368f4e41f066fd1c82c297b4a1108","132.247.249.242","Mozilla/5.0 (Windows NT 10.0; Win64; x64) AppleWebKit/537.36 (KHTML, like Gecko) Chrome/107.0.0.0 Safari/537.36 Edg/107.0.1418.56","WebKit","Edge","107.0.1418.56","Windows","10.0","[0]","","62","4",""
"7827","You see how an elephant is eating a watermelon <br> T&uacute ves como un elefante est&aacute comiendo una sand&iacutea","{""Q0"":4}","trial","8146","survey-likert","44","739544","0.0-5.0-0.32","44","1","2022-11-29 21:25:09","2df368f4e41f066fd1c82c297b4a1108","132.247.249.242","Mozilla/5.0 (Windows NT 10.0; Win64; x64) AppleWebKit/537.36 (KHTML, like Gecko) Chrome/107.0.0.0 Safari/537.36 Edg/107.0.1418.56","WebKit","Edge","107.0.1418.56","Windows","10.0","[0]","","31","4",""
"5193","You drop a remote on the rug <br> T&uacute tiras un control remoto a la alfombra","{""Q0"":4}","trial","8146","survey-likert","45","744743","0.0-5.0-0.33","44","1","2022-11-29 21:25:09","2df368f4e41f066fd1c82c297b4a1108","132.247.249.242","Mozilla/5.0 (Windows NT 10.0; Win64; x64) AppleWebKit/537.36 (KHTML, like Gecko) Chrome/107.0.0.0 Safari/537.36 Edg/107.0.1418.56","WebKit","Edge","107.0.1418.56","Windows","10.0","[0]","","39","4",""
"5229","You see how a pilot is reading a book <br> T&uacute ves como un piloto est&aacute leyendo un libro","{""Q0"":4}","trial","8146","survey-likert","46","749978","0.0-5.0-0.34","44","1","2022-11-29 21:25:09","2df368f4e41f066fd1c82c297b4a1108","132.247.249.242","Mozilla/5.0 (Windows NT 10.0; Win64; x64) AppleWebKit/537.36 (KHTML, like Gecko) Chrome/107.0.0.0 Safari/537.36 Edg/107.0.1418.56","WebKit","Edge","107.0.1418.56","Windows","10.0","[0]","","61","4",""
"4307","You see how an actress is taking a microphone <br> T&uacute ves como una actriz est&aacute agarrando el micr&oacutefono","{""Q0"":4}","trial","8146","survey-likert","47","754292","0.0-5.0-0.35","44","1","2022-11-29 21:25:09","2df368f4e41f066fd1c82c297b4a1108","132.247.249.242","Mozilla/5.0 (Windows NT 10.0; Win64; x64) AppleWebKit/537.36 (KHTML, like Gecko) Chrome/107.0.0.0 Safari/537.36 Edg/107.0.1418.56","WebKit","Edge","107.0.1418.56","Windows","10.0","[0]","","51","4",""
"3598","You see how a parrot is eating an apple <br> T&uacute ves como un loro est&aacute comiendo una manzana","{""Q0"":4}","trial","8146","survey-likert","48","757897","0.0-5.0-0.36","44","1","2022-11-29 21:25:09","2df368f4e41f066fd1c82c297b4a1108","132.247.249.242","Mozilla/5.0 (Windows NT 10.0; Win64; x64) AppleWebKit/537.36 (KHTML, like Gecko) Chrome/107.0.0.0 Safari/537.36 Edg/107.0.1418.56","WebKit","Edge","107.0.1418.56","Windows","10.0","[0]","","58","4",""
"11226","You see how an old man is hammering a nail <br> T&uacute ves como un hombre anciano est&aacute martillando un clavo","{""Q0"":4}","trial","8146","survey-likert","49","769131","0.0-5.0-0.37","44","1","2022-11-29 21:25:09","2df368f4e41f066fd1c82c297b4a1108","132.247.249.242","Mozilla/5.0 (Windows NT 10.0; Win64; x64) AppleWebKit/537.36 (KHTML, like Gecko) Chrome/107.0.0.0 Safari/537.36 Edg/107.0.1418.56","WebKit","Edge","107.0.1418.56","Windows","10.0","[0]","","29","4",""
"6036","You see how a teenage girl is playing the piano <br> T&uacute ves como una ni&ntildea adolescente est&aacute tocando el piano","{""Q0"":4}","trial","8146","survey-likert","50","775175","0.0-5.0-0.38","44","1","2022-11-29 21:25:09","2df368f4e41f066fd1c82c297b4a1108","132.247.249.242","Mozilla/5.0 (Windows NT 10.0; Win64; x64) AppleWebKit/537.36 (KHTML, like Gecko) Chrome/107.0.0.0 Safari/537.36 Edg/107.0.1418.56","WebKit","Edge","107.0.1418.56","Windows","10.0","[0]","","54","4",""
"7293","You see how a puppy is playing with a ball <br> T&uacute ves como un cachorro est&aacute jugando con una pelota","{""Q0"":4}","trial","8146","survey-likert","51","782475","0.0-5.0-0.39","44","1","2022-11-29 21:25:09","2df368f4e41f066fd1c82c297b4a1108","132.247.249.242","Mozilla/5.0 (Windows NT 10.0; Win64; x64) AppleWebKit/537.36 (KHTML, like Gecko) Chrome/107.0.0.0 Safari/537.36 Edg/107.0.1418.56","WebKit","Edge","107.0.1418.56","Windows","10.0","[0]","","34","4",""
"6113","You see how a dentist is drinking a can of cola <br> T&uacute ves como un dentista est&aacute bebiendo una lata de cola","{""Q0"":4}","trial","8146","survey-likert","52","788595","0.0-5.0-0.40","44","1","2022-11-29 21:25:09","2df368f4e41f066fd1c82c297b4a1108","132.247.249.242","Mozilla/5.0 (Windows NT 10.0; Win64; x64) AppleWebKit/537.36 (KHTML, like Gecko) Chrome/107.0.0.0 Safari/537.36 Edg/107.0.1418.56","WebKit","Edge","107.0.1418.56","Windows","10.0","[0]","","47","4",""
"7163","You drop a bowling ball on a hat <br> T&uacute tiras una bola de boliche a una gorra","{""Q0"":4}","trial","8146","survey-likert","53","795765","0.0-5.0-0.41","44","1","2022-11-29 21:25:09","2df368f4e41f066fd1c82c297b4a1108","132.247.249.242","Mozilla/5.0 (Windows NT 10.0; Win64; x64) AppleWebKit/537.36 (KHTML, like Gecko) Chrome/107.0.0.0 Safari/537.36 Edg/107.0.1418.56","WebKit","Edge","107.0.1418.56","Windows","10.0","[0]","","10","4",""
"5207","You drop a bowling ball on a blackberry <br> T&uacute tiras una bola de boliche a una mora","{""Q0"":4}","trial","8146","survey-likert","54","800979","0.0-5.0-0.42","44","1","2022-11-29 21:25:09","2df368f4e41f066fd1c82c297b4a1108","132.247.249.242","Mozilla/5.0 (Windows NT 10.0; Win64; x64) AppleWebKit/537.36 (KHTML, like Gecko) Chrome/107.0.0.0 Safari/537.36 Edg/107.0.1418.56","WebKit","Edge","107.0.1418.56","Windows","10.0","[0]","","8","4",""
"6888","You drop a thermometer on the box <br> T&uacute tiras un term&oacutemetro a la caja","{""Q0"":4}","trial","8146","survey-likert","55","807874","0.0-5.0-0.43","44","1","2022-11-29 21:25:09","2df368f4e41f066fd1c82c297b4a1108","132.247.249.242","Mozilla/5.0 (Windows NT 10.0; Win64; x64) AppleWebKit/537.36 (KHTML, like Gecko) Chrome/107.0.0.0 Safari/537.36 Edg/107.0.1418.56","WebKit","Edge","107.0.1418.56","Windows","10.0","[0]","","70","4",""
"7452","You drop a bowling ball on a rice cake <br> T&uacute tiras una bola de boliche a una tortita de arroz","{""Q0"":4}","trial","8146","survey-likert","56","815333","0.0-5.0-0.44","44","1","2022-11-29 21:25:09","2df368f4e41f066fd1c82c297b4a1108","132.247.249.242","Mozilla/5.0 (Windows NT 10.0; Win64; x64) AppleWebKit/537.36 (KHTML, like Gecko) Chrome/107.0.0.0 Safari/537.36 Edg/107.0.1418.56","WebKit","Edge","107.0.1418.56","Windows","10.0","[0]","","18","4",""
"4333","You drop a keyboard on the bed <br> T&uacute tiras un teclado a la cama","{""Q0"":4}","trial","8146","survey-likert","57","819673","0.0-5.0-0.45","44","1","2022-11-29 21:25:09","2df368f4e41f066fd1c82c297b4a1108","132.247.249.242","Mozilla/5.0 (Windows NT 10.0; Win64; x64) AppleWebKit/537.36 (KHTML, like Gecko) Chrome/107.0.0.0 Safari/537.36 Edg/107.0.1418.56","WebKit","Edge","107.0.1418.56","Windows","10.0","[0]","","36","4",""
"5736","You see how a butterfly is sitting on a flower <br> T&uacute ves como una mariposa est&aacute reposando en una flor","{""Q0"":4}","trial","8146","survey-likert","58","825417","0.0-5.0-0.46","44","1","2022-11-29 21:25:09","2df368f4e41f066fd1c82c297b4a1108","132.247.249.242","Mozilla/5.0 (Windows NT 10.0; Win64; x64) AppleWebKit/537.36 (KHTML, like Gecko) Chrome/107.0.0.0 Safari/537.36 Edg/107.0.1418.56","WebKit","Edge","107.0.1418.56","Windows","10.0","[0]","","59","4",""
"3387","You see how a woman is paying with a debit card <br> T&uacute ves como una mujer est&aacute pagando con una tarjeta de d&eacutebito","{""Q0"":4}","trial","8146","survey-likert","59","828812","0.0-5.0-0.47","44","1","2022-11-29 21:25:09","2df368f4e41f066fd1c82c297b4a1108","132.247.249.242","Mozilla/5.0 (Windows NT 10.0; Win64; x64) AppleWebKit/537.36 (KHTML, like Gecko) Chrome/107.0.0.0 Safari/537.36 Edg/107.0.1418.56","WebKit","Edge","107.0.1418.56","Windows","10.0","[0]","","64","4",""
"4517","You drop a bowling ball on a wine glass <br> T&uacute tiras una bola de boliche a una copa de vino","{""Q0"":4}","trial","8146","survey-likert","60","833336","0.0-5.0-0.48","44","1","2022-11-29 21:25:09","2df368f4e41f066fd1c82c297b4a1108","132.247.249.242","Mozilla/5.0 (Windows NT 10.0; Win64; x64) AppleWebKit/537.36 (KHTML, like Gecko) Chrome/107.0.0.0 Safari/537.36 Edg/107.0.1418.56","WebKit","Edge","107.0.1418.56","Windows","10.0","[0]","","5","4",""
"3838","You drop a watch on the laptop <br> T&uacute tiras un reloj al port&aacutetil","{""Q0"":4}","trial","8146","survey-likert","61","837181","0.0-5.0-0.49","44","1","2022-11-29 21:25:09","2df368f4e41f066fd1c82c297b4a1108","132.247.249.242","Mozilla/5.0 (Windows NT 10.0; Win64; x64) AppleWebKit/537.36 (KHTML, like Gecko) Chrome/107.0.0.0 Safari/537.36 Edg/107.0.1418.56","WebKit","Edge","107.0.1418.56","Windows","10.0","[0]","","37","4",""
"2377","You drop a pencil on the shoe <br> T&uacute tiras un l&aacutepiz al zapato","{""Q0"":4}","trial","8146","survey-likert","62","839566","0.0-5.0-0.50","44","1","2022-11-29 21:25:09","2df368f4e41f066fd1c82c297b4a1108","132.247.249.242","Mozilla/5.0 (Windows NT 10.0; Win64; x64) AppleWebKit/537.36 (KHTML, like Gecko) Chrome/107.0.0.0 Safari/537.36 Edg/107.0.1418.56","WebKit","Edge","107.0.1418.56","Windows","10.0","[0]","","40","4",""
"3588","You drop a bowling ball on an egg flan <br> T&uacute tiras una bola de boliche a un flan","{""Q0"":4}","trial","8146","survey-likert","63","843161","0.0-5.0-0.51","44","1","2022-11-29 21:25:09","2df368f4e41f066fd1c82c297b4a1108","132.247.249.242","Mozilla/5.0 (Windows NT 10.0; Win64; x64) AppleWebKit/537.36 (KHTML, like Gecko) Chrome/107.0.0.0 Safari/537.36 Edg/107.0.1418.56","WebKit","Edge","107.0.1418.56","Windows","10.0","[0]","","7","4",""
"2712","You see how a student is writing on a board <br> T&uacute ves como un estudiante est&aacute escribiendo en la pizarra","{""Q0"":4}","trial","8146","survey-likert","64","845880","0.0-5.0-0.52","44","1","2022-11-29 21:25:09","2df368f4e41f066fd1c82c297b4a1108","132.247.249.242","Mozilla/5.0 (Windows NT 10.0; Win64; x64) AppleWebKit/537.36 (KHTML, like Gecko) Chrome/107.0.0.0 Safari/537.36 Edg/107.0.1418.56","WebKit","Edge","107.0.1418.56","Windows","10.0","[0]","","50","4",""
"2895","You see how a man is shaving his beard <br> T&uacute ves como un hombre se est&aacute afeitando la barba","{""Q0"":4}","trial","8146","survey-likert","65","848785","0.0-5.0-0.53","44","1","2022-11-29 21:25:09","2df368f4e41f066fd1c82c297b4a1108","132.247.249.242","Mozilla/5.0 (Windows NT 10.0; Win64; x64) AppleWebKit/537.36 (KHTML, like Gecko) Chrome/107.0.0.0 Safari/537.36 Edg/107.0.1418.56","WebKit","Edge","107.0.1418.56","Windows","10.0","[0]","","43","4",""
"4208","You drop a bowling ball on a tile <br> T&uacute tiras una bola de boliche a una baldosa","{""Q0"":4}","trial","8146","survey-likert","66","853000","0.0-5.0-0.54","44","1","2022-11-29 21:25:09","2df368f4e41f066fd1c82c297b4a1108","132.247.249.242","Mozilla/5.0 (Windows NT 10.0; Win64; x64) AppleWebKit/537.36 (KHTML, like Gecko) Chrome/107.0.0.0 Safari/537.36 Edg/107.0.1418.56","WebKit","Edge","107.0.1418.56","Windows","10.0","[0]","","22","4",""
"3118","You drop a cushion on the magazine <br> T&uacute tiras un coj&iacuten a la revista","{""Q0"":4}","trial","8146","survey-likert","67","856125","0.0-5.0-0.55","44","1","2022-11-29 21:25:09","2df368f4e41f066fd1c82c297b4a1108","132.247.249.242","Mozilla/5.0 (Windows NT 10.0; Win64; x64) AppleWebKit/537.36 (KHTML, like Gecko) Chrome/107.0.0.0 Safari/537.36 Edg/107.0.1418.56","WebKit","Edge","107.0.1418.56","Windows","10.0","[0]","","38","4",""
"3380","You see how a thief is stealing a wallet <br> T&uacute ves como un ladr&oacuten est&aacute robando una billetera","{""Q0"":4}","trial","8146","survey-likert","68","859513","0.0-5.0-0.56","44","1","2022-11-29 21:25:09","2df368f4e41f066fd1c82c297b4a1108","132.247.249.242","Mozilla/5.0 (Windows NT 10.0; Win64; x64) AppleWebKit/537.36 (KHTML, like Gecko) Chrome/107.0.0.0 Safari/537.36 Edg/107.0.1418.56","WebKit","Edge","107.0.1418.56","Windows","10.0","[0]","","68","4",""
"7902","You drop a bowling ball on a cracker <br> T&uacute tiras una bola de boliche a una galleta","{""Q0"":4}","trial","8146","survey-likert","69","867423","0.0-5.0-0.57","44","1","2022-11-29 21:25:09","2df368f4e41f066fd1c82c297b4a1108","132.247.249.242","Mozilla/5.0 (Windows NT 10.0; Win64; x64) AppleWebKit/537.36 (KHTML, like Gecko) Chrome/107.0.0.0 Safari/537.36 Edg/107.0.1418.56","WebKit","Edge","107.0.1418.56","Windows","10.0","[0]","","4","4",""
"5488","You drop a bowling ball on a ceramic plate <br> T&uacute tiras una bola de boliche a un plato de cer&aacutemica","{""Q0"":4}","trial","8146","survey-likert","70","872919","0.0-5.0-0.58","44","1","2022-11-29 21:25:09","2df368f4e41f066fd1c82c297b4a1108","132.247.249.242","Mozilla/5.0 (Windows NT 10.0; Win64; x64) AppleWebKit/537.36 (KHTML, like Gecko) Chrome/107.0.0.0 Safari/537.36 Edg/107.0.1418.56","WebKit","Edge","107.0.1418.56","Windows","10.0","[0]","","19","4",""
"4844","You see how a doctor is taking a stethoscope <br> T&uacute ves como un doctor est&aacute agarrando un estetoscopio","{""Q0"":4}","trial","8146","survey-likert","71","877772","0.0-5.0-0.59","44","1","2022-11-29 21:25:09","2df368f4e41f066fd1c82c297b4a1108","132.247.249.242","Mozilla/5.0 (Windows NT 10.0; Win64; x64) AppleWebKit/537.36 (KHTML, like Gecko) Chrome/107.0.0.0 Safari/537.36 Edg/107.0.1418.56","WebKit","Edge","107.0.1418.56","Windows","10.0","[0]","","49","4",""
"7197","You see how a donkey is drinking water <br> T&uacute ves como un burro est&aacute bebiendo agua","{""Q0"":4}","trial","8146","survey-likert","72","884977","0.0-5.0-0.60","44","1","2022-11-29 21:25:09","2df368f4e41f066fd1c82c297b4a1108","132.247.249.242","Mozilla/5.0 (Windows NT 10.0; Win64; x64) AppleWebKit/537.36 (KHTML, like Gecko) Chrome/107.0.0.0 Safari/537.36 Edg/107.0.1418.56","WebKit","Edge","107.0.1418.56","Windows","10.0","[0]","","45","4",""
"4187","You drop a cabbage on the table <br> T&uacute tiras una col a la mesa","{""Q0"":4}","trial","8146","survey-likert","73","889173","0.0-5.0-0.61","44","1","2022-11-29 21:25:09","2df368f4e41f066fd1c82c297b4a1108","132.247.249.242","Mozilla/5.0 (Windows NT 10.0; Win64; x64) AppleWebKit/537.36 (KHTML, like Gecko) Chrome/107.0.0.0 Safari/537.36 Edg/107.0.1418.56","WebKit","Edge","107.0.1418.56","Windows","10.0","[0]","","35","4",""
"3372","You drop a bowling ball on an iPAD <br> T&uacute tiras una bola de boliche a un iPad","{""Q0"":4}","trial","8146","survey-likert","74","892553","0.0-5.0-0.62","44","1","2022-11-29 21:25:09","2df368f4e41f066fd1c82c297b4a1108","132.247.249.242","Mozilla/5.0 (Windows NT 10.0; Win64; x64) AppleWebKit/537.36 (KHTML, like Gecko) Chrome/107.0.0.0 Safari/537.36 Edg/107.0.1418.56","WebKit","Edge","107.0.1418.56","Windows","10.0","[0]","","12","4",""
"5922","You drop a needle on the mouse pad <br> T&uacute tiras una aguja a la alfombrilla para el rat&oacuten","{""Q0"":4}","trial","8146","survey-likert","75","898483","0.0-5.0-0.63","44","1","2022-11-29 21:25:09","2df368f4e41f066fd1c82c297b4a1108","132.247.249.242","Mozilla/5.0 (Windows NT 10.0; Win64; x64) AppleWebKit/537.36 (KHTML, like Gecko) Chrome/107.0.0.0 Safari/537.36 Edg/107.0.1418.56","WebKit","Edge","107.0.1418.56","Windows","10.0","[0]","","42","4",""
"12732","You see how a photographer is taking a photo of a lion <br> T&uacute ves como un fot&oacutegrafo est&aacute tomando una foto de un le&oacuten","{""Q0"":4}","trial","8146","survey-likert","76","911223","0.0-5.0-0.64","44","1","2022-11-29 21:25:09","2df368f4e41f066fd1c82c297b4a1108","132.247.249.242","Mozilla/5.0 (Windows NT 10.0; Win64; x64) AppleWebKit/537.36 (KHTML, like Gecko) Chrome/107.0.0.0 Safari/537.36 Edg/107.0.1418.56","WebKit","Edge","107.0.1418.56","Windows","10.0","[0]","","72","4",""
"3826","You see how a boy is peeling a banana <br> T&uacute ves como un ni&ntildeo est&aacute pelando una banana","{""Q0"":4}","trial","8146","survey-likert","77","915059","0.0-5.0-0.65","44","1","2022-11-29 21:25:09","2df368f4e41f066fd1c82c297b4a1108","132.247.249.242","Mozilla/5.0 (Windows NT 10.0; Win64; x64) AppleWebKit/537.36 (KHTML, like Gecko) Chrome/107.0.0.0 Safari/537.36 Edg/107.0.1418.56","WebKit","Edge","107.0.1418.56","Windows","10.0","[0]","","30","4",""
"3906","You see how a president is writing in the notebook <br> T&uacute ves como un presidente est&aacute escribiendo en la libreta","{""Q0"":4}","trial","8146","survey-likert","78","918973","0.0-5.0-0.66","44","1","2022-11-29 21:25:09","2df368f4e41f066fd1c82c297b4a1108","132.247.249.242","Mozilla/5.0 (Windows NT 10.0; Win64; x64) AppleWebKit/537.36 (KHTML, like Gecko) Chrome/107.0.0.0 Safari/537.36 Edg/107.0.1418.56","WebKit","Edge","107.0.1418.56","Windows","10.0","[0]","","63","4",""
"3072","You drop a bowling ball on a chocolate muffin <br> T&uacute tiras una bola de boliche a una magdalena de chocolate","{""Q0"":4}","trial","8146","survey-likert","79","922054","0.0-5.0-0.67","44","1","2022-11-29 21:25:09","2df368f4e41f066fd1c82c297b4a1108","132.247.249.242","Mozilla/5.0 (Windows NT 10.0; Win64; x64) AppleWebKit/537.36 (KHTML, like Gecko) Chrome/107.0.0.0 Safari/537.36 Edg/107.0.1418.56","WebKit","Edge","107.0.1418.56","Windows","10.0","[0]","","16","4",""
"41547","You drop a bowling ball on a tomato <br> T&uacute tiras una bola de boliche a un tomate","{""Q0"":3}","trial","8146","survey-likert","80","963610","0.0-5.0-0.68","44","1","2022-11-29 21:25:09","2df368f4e41f066fd1c82c297b4a1108","132.247.249.242","Mozilla/5.0 (Windows NT 10.0; Win64; x64) AppleWebKit/537.36 (KHTML, like Gecko) Chrome/107.0.0.0 Safari/537.36 Edg/107.0.1418.56","WebKit","Edge","107.0.1418.56","Windows","10.0","[0]","","23","3",""
"4040","You drop a bowling ball on a porcelain figure <br> T&uacute tiras una bola de boliche a una figura de porcelana","{""Q0"":4}","trial","8146","survey-likert","81","967658","0.0-5.0-0.69","44","1","2022-11-29 21:25:09","2df368f4e41f066fd1c82c297b4a1108","132.247.249.242","Mozilla/5.0 (Windows NT 10.0; Win64; x64) AppleWebKit/537.36 (KHTML, like Gecko) Chrome/107.0.0.0 Safari/537.36 Edg/107.0.1418.56","WebKit","Edge","107.0.1418.56","Windows","10.0","[0]","","1","4",""
"3663","You see how a hairdresser is taking scissors <br> T&uacute ves como una peluquera est&aacute agarrando las tijeras","{""Q0"":4}","trial","8146","survey-likert","82","971329","0.0-5.0-0.70","44","1","2022-11-29 21:25:09","2df368f4e41f066fd1c82c297b4a1108","132.247.249.242","Mozilla/5.0 (Windows NT 10.0; Win64; x64) AppleWebKit/537.36 (KHTML, like Gecko) Chrome/107.0.0.0 Safari/537.36 Edg/107.0.1418.56","WebKit","Edge","107.0.1418.56","Windows","10.0","[0]","","60","4",""
"2981","You drop a toothbrush on the sponge <br> T&uacute tiras un cepillo de dientes en la esponja","{""Q0"":4}","trial","8146","survey-likert","83","974318","0.0-5.0-0.71","44","1","2022-11-29 21:25:09","2df368f4e41f066fd1c82c297b4a1108","132.247.249.242","Mozilla/5.0 (Windows NT 10.0; Win64; x64) AppleWebKit/537.36 (KHTML, like Gecko) Chrome/107.0.0.0 Safari/537.36 Edg/107.0.1418.56","WebKit","Edge","107.0.1418.56","Windows","10.0","[0]","","25","4",""
"5721","
    <p style=""font-size:20px;""> You have completed the experiment portion! </p>
    <p style=""font-size:20px;""> Before you are done, we would like you to answer some basic demographic questions. </p>
    <p style=""font-size:20px;""> Note that your answers to these questions will not affect your compensation/credit. </p>
    <p style=""font-size:20px;""> Click the button below to continue.</p>
    ","0","demo","8146","html-button-response","84","980049","0.0-6.0","44","1","2022-11-29 21:25:09","2df368f4e41f066fd1c82c297b4a1108","132.247.249.242","Mozilla/5.0 (Windows NT 10.0; Win64; x64) AppleWebKit/537.36 (KHTML, like Gecko) Chrome/107.0.0.0 Safari/537.36 Edg/107.0.1418.56","WebKit","Edge","107.0.1418.56","Windows","10.0","","","","",""
"42578","","{""Age"":""23"",""Gender"":""Femenine"",""Education"":""15""}","demo","8146","survey-text","85","1022637","0.0-7.0-0.0","44","1","2022-11-29 21:25:09","2df368f4e41f066fd1c82c297b4a1108","132.247.249.242","Mozilla/5.0 (Windows NT 10.0; Win64; x64) AppleWebKit/537.36 (KHTML, like Gecko) Chrome/107.0.0.0 Safari/537.36 Edg/107.0.1418.56","WebKit","Edge","107.0.1418.56","Windows","10.0","","","","",""
"13334","","{""Race"":[""Other""]}","demo","8146","survey-multi-select","86","1035983","0.0-7.0-1.0","44","1","2022-11-29 21:25:09","2df368f4e41f066fd1c82c297b4a1108","132.247.249.242","Mozilla/5.0 (Windows NT 10.0; Win64; x64) AppleWebKit/537.36 (KHTML, like Gecko) Chrome/107.0.0.0 Safari/537.36 Edg/107.0.1418.56","WebKit","Edge","107.0.1418.56","Windows","10.0","[0]","","","",""
"18202","","{""Latino"":""Yes"",""Alert"":""Afternoon""}","demo","8146","survey-multi-choice","87","1054193","0.0-7.0-2.0","44","1","2022-11-29 21:25:09","2df368f4e41f066fd1c82c297b4a1108","132.247.249.242","Mozilla/5.0 (Windows NT 10.0; Win64; x64) AppleWebKit/537.36 (KHTML, like Gecko) Chrome/107.0.0.0 Safari/537.36 Edg/107.0.1418.56","WebKit","Edge","107.0.1418.56","Windows","10.0","[0,1]","","","",""
"42025","","{""Q0"":""Hungry. Very hungry""}","demo","8146","survey-text","88","1096229","0.0-7.0-3.0","44","1","2022-11-29 21:25:09","2df368f4e41f066fd1c82c297b4a1108","132.247.249.242","Mozilla/5.0 (Windows NT 10.0; Win64; x64) AppleWebKit/537.36 (KHTML, like Gecko) Chrome/107.0.0.0 Safari/537.36 Edg/107.0.1418.56","WebKit","Edge","107.0.1418.56","Windows","10.0","","","","",""
"11632","<p>Thank you for participating! </p><strong>Your completion code is: CXEJB7NH. Please copy-paste this code and submit it on Prolific.</strong><p>Click <a href=""https://drive.google.com/file/d/1c70cdHFlc0AaR6RujLWLJwWkv1RbHQJY/view?usp=sharing"" target=""_blank"" rel=""noopener noreferrer"">here</a> to access the debriefing form and know more about our research. <p> Please click the button below to finish the experiment and save your data.</p> <p> IMPORTANT: Please <strong>do not leave this page </strong> without clicking the button below.</p> <p> You may close the tab/window after you click the button below.","0","","","html-button-response","89","1107868","0.0-8.0","44","1","2022-11-29 21:25:09","2df368f4e41f066fd1c82c297b4a1108","132.247.249.242","Mozilla/5.0 (Windows NT 10.0; Win64; x64) AppleWebKit/537.36 (KHTML, like Gecko) Chrome/107.0.0.0 Safari/537.36 Edg/107.0.1418.56","WebKit","Edge","107.0.1418.56","Windows","10.0","","","","",""
