"rt","stimulus","response","typeoftrial","subject","trial_type","trial_index","time_elapsed","internal_node_id","run_id","condition","recorded_at","source_code_version","ip","user_agent","device","browser","browser_version","platform","platform_version","question_order","practice_rating","sentence_num","rating","Experiment"
"18875","
        <p style=""font-size:20px;""> Welcome! Thank you for your interest in our study. </p>
        <p style=""font-size:20px;""> This study is being conducted by researchers at Bowdoin College.</p>
        <p style=""font-size:20px;""> In this experiment, you will be asked to rate the accuracy of English and Spanish translations.</p>
        <p style=""font-size:20px;""> The entire experiment should not last more than 20 minutes. You will be paid $3 USD for your participation. </p>
        <p style=""font-size:20px;""> Please click <a href = ""https://drive.google.com/file/d/1L92a02eEKCpaAEipmqDcBCDR7rsarqFE/view?usp=sharing"" target = ""_blank"">here</a> to read the full consent form. </p>
        <p style=""font-size:20px;""> If you agree to participate, please click the button below to continue to experiment instructions.</p>
        ","0","consent","68582","html-button-response","0","18878","0.0-0.0","30","1","2022-11-29 21:24:55","2df368f4e41f066fd1c82c297b4a1108","177.226.116.219","Mozilla/5.0 (Windows NT 10.0; Win64; x64) AppleWebKit/537.36 (KHTML, like Gecko) Chrome/107.0.0.0 Safari/537.36","WebKit","Chrome","107.0.0.0","Windows","10.0","","","","",""
"3709","","{""ID"":""6092d3d5d250e90206fdc4ee""}","ID","68582","survey-text","1","22592","0.0-1.0","30","1","2022-11-29 21:24:55","2df368f4e41f066fd1c82c297b4a1108","177.226.116.219","Mozilla/5.0 (Windows NT 10.0; Win64; x64) AppleWebKit/537.36 (KHTML, like Gecko) Chrome/107.0.0.0 Safari/537.36","WebKit","Chrome","107.0.0.0","Windows","10.0","","","","",""
"19042","
        <p style=""font-size:20px;""> You are about to begin the practice test. </p>
        <p style=""font-size:20px;""> On each trial, you will see a sentence in English and its corresponding Spanish translation. </p>
        <p style=""font-size:20px;""> You will rate the accuracy of the translation on a scale from ""Not at all accurate"" to ""Very accurate."" </p>
        <p style=""font-size:20px;""> If you rate the translation as ""Somewhat innaccurate"" or ""Not at all accurate,"" you will be asked to provide your own translation or a reason why the translation is inaccurate. </p>
        <p style=""font-size:20px;""> Click the button below to continue to the practice session.</p>","0","instructions","68582","html-button-response","2","41636","0.0-2.0","30","1","2022-11-29 21:24:55","2df368f4e41f066fd1c82c297b4a1108","177.226.116.219","Mozilla/5.0 (Windows NT 10.0; Win64; x64) AppleWebKit/537.36 (KHTML, like Gecko) Chrome/107.0.0.0 Safari/537.36","WebKit","Chrome","107.0.0.0","Windows","10.0","","","","",""
"13706","You see how a tiger is playing with a goose <br> T&uacute ves como un le&oacuten come una pizza","{""Q0"":0}","practice","68582","survey-likert","3","55345","0.0-3.0-0.0","30","1","2022-11-29 21:24:55","2df368f4e41f066fd1c82c297b4a1108","177.226.116.219","Mozilla/5.0 (Windows NT 10.0; Win64; x64) AppleWebKit/537.36 (KHTML, like Gecko) Chrome/107.0.0.0 Safari/537.36","WebKit","Chrome","107.0.0.0","Windows","10.0","[0]","0","","",""
"42642","You see how a tiger is playing with a goose <br> T&uacute ves como un le&oacuten come una pizza","{""Q0"":""It's talking about a goose and it was translated into a pizza.""}","practice_low_rate","68582","survey-text","4","97996","0.0-3.0-1.0-0.0","30","1","2022-11-29 21:24:55","2df368f4e41f066fd1c82c297b4a1108","177.226.116.219","Mozilla/5.0 (Windows NT 10.0; Win64; x64) AppleWebKit/537.36 (KHTML, like Gecko) Chrome/107.0.0.0 Safari/537.36","WebKit","Chrome","107.0.0.0","Windows","10.0","","","5","",""
"9167","You see how an artist is running <br> T&uacute ves como un artista est&aacute corriendo","{""Q0"":4}","practice","68582","survey-likert","5","107167","0.0-3.0-0.1","30","1","2022-11-29 21:24:55","2df368f4e41f066fd1c82c297b4a1108","177.226.116.219","Mozilla/5.0 (Windows NT 10.0; Win64; x64) AppleWebKit/537.36 (KHTML, like Gecko) Chrome/107.0.0.0 Safari/537.36","WebKit","Chrome","107.0.0.0","Windows","10.0","[0]","4","","",""
"6848","You see how a duck is playing with a pumpkin <br> T&uacute ves como un pato est&aacute jugando con una calabaza","{""Q0"":4}","practice","68582","survey-likert","6","114022","0.0-3.0-0.2","30","1","2022-11-29 21:24:55","2df368f4e41f066fd1c82c297b4a1108","177.226.116.219","Mozilla/5.0 (Windows NT 10.0; Win64; x64) AppleWebKit/537.36 (KHTML, like Gecko) Chrome/107.0.0.0 Safari/537.36","WebKit","Chrome","107.0.0.0","Windows","10.0","[0]","4","","",""
"16068","You see how a teacher is drawing a picture <br> T&uacute ves como un maestro pinta una foto","{""Q0"":3}","practice","68582","survey-likert","7","130096","0.0-3.0-0.3","30","1","2022-11-29 21:24:55","2df368f4e41f066fd1c82c297b4a1108","177.226.116.219","Mozilla/5.0 (Windows NT 10.0; Win64; x64) AppleWebKit/537.36 (KHTML, like Gecko) Chrome/107.0.0.0 Safari/537.36","WebKit","Chrome","107.0.0.0","Windows","10.0","[0]","3","","",""
"10875","You drop a bowling ball on a mircrowave <br> T&uacute tiras una bola de boliche a un horno","{""Q0"":4}","practice","68582","survey-likert","8","140978","0.0-3.0-0.4","30","1","2022-11-29 21:24:55","2df368f4e41f066fd1c82c297b4a1108","177.226.116.219","Mozilla/5.0 (Windows NT 10.0; Win64; x64) AppleWebKit/537.36 (KHTML, like Gecko) Chrome/107.0.0.0 Safari/537.36","WebKit","Chrome","107.0.0.0","Windows","10.0","[0]","4","","",""
"9388","You drop a rock on a phone <br> T&uacute tiras una piedra a un tel&eacutefono","{""Q0"":3}","practice","68582","survey-likert","9","150374","0.0-3.0-0.5","30","1","2022-11-29 21:24:55","2df368f4e41f066fd1c82c297b4a1108","177.226.116.219","Mozilla/5.0 (Windows NT 10.0; Win64; x64) AppleWebKit/537.36 (KHTML, like Gecko) Chrome/107.0.0.0 Safari/537.36","WebKit","Chrome","107.0.0.0","Windows","10.0","[0]","3","","",""
"3335","<p style=""font-size:20px;"">You have now completed the practice session! </p>
        <p style=""font-size:20px;"">You will now move on to the main experiment. </p>
        <p style=""font-size:20px;"">Please click the button below to continue. </p>","0","movetoexp","68582","html-button-response","10","153716","0.0-4.0","30","1","2022-11-29 21:24:55","2df368f4e41f066fd1c82c297b4a1108","177.226.116.219","Mozilla/5.0 (Windows NT 10.0; Win64; x64) AppleWebKit/537.36 (KHTML, like Gecko) Chrome/107.0.0.0 Safari/537.36","WebKit","Chrome","107.0.0.0","Windows","10.0","","","","",""
"6461","You see how a man is shaving his beard <br> T&uacute ves como un hombre se est&aacute afeitando la barba","{""Q0"":4}","trial","68582","survey-likert","11","160179","0.0-5.0-0.0","30","1","2022-11-29 21:24:55","2df368f4e41f066fd1c82c297b4a1108","177.226.116.219","Mozilla/5.0 (Windows NT 10.0; Win64; x64) AppleWebKit/537.36 (KHTML, like Gecko) Chrome/107.0.0.0 Safari/537.36","WebKit","Chrome","107.0.0.0","Windows","10.0","[0]","","43","4",""
"10065","You see how an actress is taking a microphone <br> T&uacute ves como una actriz est&aacute agarrando el micr&oacutefono","{""Q0"":4}","trial","68582","survey-likert","12","170251","0.0-5.0-0.1","30","1","2022-11-29 21:24:55","2df368f4e41f066fd1c82c297b4a1108","177.226.116.219","Mozilla/5.0 (Windows NT 10.0; Win64; x64) AppleWebKit/537.36 (KHTML, like Gecko) Chrome/107.0.0.0 Safari/537.36","WebKit","Chrome","107.0.0.0","Windows","10.0","[0]","","51","4",""
"7637","You drop a bowling ball on an egg <br> T&uacute tiras una bola de boliche a un huevo","{""Q0"":3}","trial","68582","survey-likert","13","177895","0.0-5.0-0.2","30","1","2022-11-29 21:24:55","2df368f4e41f066fd1c82c297b4a1108","177.226.116.219","Mozilla/5.0 (Windows NT 10.0; Win64; x64) AppleWebKit/537.36 (KHTML, like Gecko) Chrome/107.0.0.0 Safari/537.36","WebKit","Chrome","107.0.0.0","Windows","10.0","[0]","","6","3",""
"13095","You see how a woman is paying with a debit card <br> T&uacute ves como una mujer est&aacute pagando con una tarjeta de d&eacutebito","{""Q0"":4}","trial","68582","survey-likert","14","190996","0.0-5.0-0.3","30","1","2022-11-29 21:24:55","2df368f4e41f066fd1c82c297b4a1108","177.226.116.219","Mozilla/5.0 (Windows NT 10.0; Win64; x64) AppleWebKit/537.36 (KHTML, like Gecko) Chrome/107.0.0.0 Safari/537.36","WebKit","Chrome","107.0.0.0","Windows","10.0","[0]","","64","4",""
"6377","You drop a bowling ball on a light bulb <br> T&uacute tiras una bola de boliche a una bombilla","{""Q0"":4}","trial","68582","survey-likert","15","197378","0.0-5.0-0.4","30","1","2022-11-29 21:24:55","2df368f4e41f066fd1c82c297b4a1108","177.226.116.219","Mozilla/5.0 (Windows NT 10.0; Win64; x64) AppleWebKit/537.36 (KHTML, like Gecko) Chrome/107.0.0.0 Safari/537.36","WebKit","Chrome","107.0.0.0","Windows","10.0","[0]","","14","4",""
"6819","You drop a towel on the TV <br> T&uacute tiras una toalla a la televisi&oacuten","{""Q0"":4}","trial","68582","survey-likert","16","204203","0.0-5.0-0.5","30","1","2022-11-29 21:24:55","2df368f4e41f066fd1c82c297b4a1108","177.226.116.219","Mozilla/5.0 (Windows NT 10.0; Win64; x64) AppleWebKit/537.36 (KHTML, like Gecko) Chrome/107.0.0.0 Safari/537.36","WebKit","Chrome","107.0.0.0","Windows","10.0","[0]","","53","4",""
"32594","You drop a cabbage on the table <br> T&uacute tiras una col a la mesa","{""Q0"":4}","trial","68582","survey-likert","17","236803","0.0-5.0-0.6","30","1","2022-11-29 21:24:55","2df368f4e41f066fd1c82c297b4a1108","177.226.116.219","Mozilla/5.0 (Windows NT 10.0; Win64; x64) AppleWebKit/537.36 (KHTML, like Gecko) Chrome/107.0.0.0 Safari/537.36","WebKit","Chrome","107.0.0.0","Windows","10.0","[0]","","35","4",""
"5983","You drop a bowling ball on a paper cup <br> T&uacute tiras una bola de boliche a un vaso de papel","{""Q0"":4}","trial","68582","survey-likert","18","242792","0.0-5.0-0.7","30","1","2022-11-29 21:24:55","2df368f4e41f066fd1c82c297b4a1108","177.226.116.219","Mozilla/5.0 (Windows NT 10.0; Win64; x64) AppleWebKit/537.36 (KHTML, like Gecko) Chrome/107.0.0.0 Safari/537.36","WebKit","Chrome","107.0.0.0","Windows","10.0","[0]","","24","4",""
"6434","You see how a musician is playing a guitar <br> T&uacute ves como un m&uacutesico est&aacute tocando la guitarra","{""Q0"":4}","trial","68582","survey-likert","19","249232","0.0-5.0-0.8","30","1","2022-11-29 21:24:55","2df368f4e41f066fd1c82c297b4a1108","177.226.116.219","Mozilla/5.0 (Windows NT 10.0; Win64; x64) AppleWebKit/537.36 (KHTML, like Gecko) Chrome/107.0.0.0 Safari/537.36","WebKit","Chrome","107.0.0.0","Windows","10.0","[0]","","27","4",""
"7254","You see how a puppy is playing with a ball <br> T&uacute ves como un cachorro est&aacute jugando con una pelota","{""Q0"":4}","trial","68582","survey-likert","20","256493","0.0-5.0-0.9","30","1","2022-11-29 21:24:55","2df368f4e41f066fd1c82c297b4a1108","177.226.116.219","Mozilla/5.0 (Windows NT 10.0; Win64; x64) AppleWebKit/537.36 (KHTML, like Gecko) Chrome/107.0.0.0 Safari/537.36","WebKit","Chrome","107.0.0.0","Windows","10.0","[0]","","34","4",""
"7529","You drop a bowling ball on an empty can of beer <br> T&uacute tiras una bola de boliche a una lata de cerveza vac&iacutea","{""Q0"":4}","trial","68582","survey-likert","21","264028","0.0-5.0-0.10","30","1","2022-11-29 21:24:55","2df368f4e41f066fd1c82c297b4a1108","177.226.116.219","Mozilla/5.0 (Windows NT 10.0; Win64; x64) AppleWebKit/537.36 (KHTML, like Gecko) Chrome/107.0.0.0 Safari/537.36","WebKit","Chrome","107.0.0.0","Windows","10.0","[0]","","3","4",""
"20439","You see how an owl is sitting on the branch <br> T&uacute ves como un b&uacuteho est&aacute reposando en una rama","{""Q0"":3}","trial","68582","survey-likert","22","284473","0.0-5.0-0.11","30","1","2022-11-29 21:24:55","2df368f4e41f066fd1c82c297b4a1108","177.226.116.219","Mozilla/5.0 (Windows NT 10.0; Win64; x64) AppleWebKit/537.36 (KHTML, like Gecko) Chrome/107.0.0.0 Safari/537.36","WebKit","Chrome","107.0.0.0","Windows","10.0","[0]","","69","3",""
"10148","You see how a doctor is taking a stethoscope <br> T&uacute ves como un doctor est&aacute agarrando un estetoscopio","{""Q0"":4}","trial","68582","survey-likert","23","294627","0.0-5.0-0.12","30","1","2022-11-29 21:24:55","2df368f4e41f066fd1c82c297b4a1108","177.226.116.219","Mozilla/5.0 (Windows NT 10.0; Win64; x64) AppleWebKit/537.36 (KHTML, like Gecko) Chrome/107.0.0.0 Safari/537.36","WebKit","Chrome","107.0.0.0","Windows","10.0","[0]","","49","4",""
"8491","You drop a bowling ball on a hat <br> T&uacute tiras una bola de boliche a una gorra","{""Q0"":4}","trial","68582","survey-likert","24","303123","0.0-5.0-0.13","30","1","2022-11-29 21:24:55","2df368f4e41f066fd1c82c297b4a1108","177.226.116.219","Mozilla/5.0 (Windows NT 10.0; Win64; x64) AppleWebKit/537.36 (KHTML, like Gecko) Chrome/107.0.0.0 Safari/537.36","WebKit","Chrome","107.0.0.0","Windows","10.0","[0]","","10","4",""
"8868","You drop a remote on the rug <br> T&uacute tiras un control remoto a la alfombra","{""Q0"":4}","trial","68582","survey-likert","25","311997","0.0-5.0-0.14","30","1","2022-11-29 21:24:55","2df368f4e41f066fd1c82c297b4a1108","177.226.116.219","Mozilla/5.0 (Windows NT 10.0; Win64; x64) AppleWebKit/537.36 (KHTML, like Gecko) Chrome/107.0.0.0 Safari/537.36","WebKit","Chrome","107.0.0.0","Windows","10.0","[0]","","39","4",""
"7438","You see how an old man is hammering a nail <br> T&uacute ves como un hombre anciano est&aacute martillando un clavo","{""Q0"":4}","trial","68582","survey-likert","26","319441","0.0-5.0-0.15","30","1","2022-11-29 21:24:55","2df368f4e41f066fd1c82c297b4a1108","177.226.116.219","Mozilla/5.0 (Windows NT 10.0; Win64; x64) AppleWebKit/537.36 (KHTML, like Gecko) Chrome/107.0.0.0 Safari/537.36","WebKit","Chrome","107.0.0.0","Windows","10.0","[0]","","29","4",""
"5324","You see how a man is playing with a cat <br> T&uacute ves como un hombre est&aacute jugando con un gato","{""Q0"":4}","trial","68582","survey-likert","27","324771","0.0-5.0-0.16","30","1","2022-11-29 21:24:55","2df368f4e41f066fd1c82c297b4a1108","177.226.116.219","Mozilla/5.0 (Windows NT 10.0; Win64; x64) AppleWebKit/537.36 (KHTML, like Gecko) Chrome/107.0.0.0 Safari/537.36","WebKit","Chrome","107.0.0.0","Windows","10.0","[0]","","67","4",""
"6992","You see how a nurse is taking a syringe <br> T&uacute ves como una enfermera est&aacute agarrando una jeringuilla","{""Q0"":4}","trial","68582","survey-likert","28","331769","0.0-5.0-0.17","30","1","2022-11-29 21:24:55","2df368f4e41f066fd1c82c297b4a1108","177.226.116.219","Mozilla/5.0 (Windows NT 10.0; Win64; x64) AppleWebKit/537.36 (KHTML, like Gecko) Chrome/107.0.0.0 Safari/537.36","WebKit","Chrome","107.0.0.0","Windows","10.0","[0]","","48","4",""
"10914","You see how a teenage girl is playing the piano <br> T&uacute ves como una ni&ntildea adolescente est&aacute tocando el piano","{""Q0"":4}","trial","68582","survey-likert","29","342689","0.0-5.0-0.18","30","1","2022-11-29 21:24:55","2df368f4e41f066fd1c82c297b4a1108","177.226.116.219","Mozilla/5.0 (Windows NT 10.0; Win64; x64) AppleWebKit/537.36 (KHTML, like Gecko) Chrome/107.0.0.0 Safari/537.36","WebKit","Chrome","107.0.0.0","Windows","10.0","[0]","","54","4",""
"5985","You drop a bowling ball on an iPAD <br> T&uacute tiras una bola de boliche a un iPad","{""Q0"":4}","trial","68582","survey-likert","30","348679","0.0-5.0-0.19","30","1","2022-11-29 21:24:55","2df368f4e41f066fd1c82c297b4a1108","177.226.116.219","Mozilla/5.0 (Windows NT 10.0; Win64; x64) AppleWebKit/537.36 (KHTML, like Gecko) Chrome/107.0.0.0 Safari/537.36","WebKit","Chrome","107.0.0.0","Windows","10.0","[0]","","12","4",""
"7167","You drop a bowling ball on a cracker <br> T&uacute tiras una bola de boliche a una galleta","{""Q0"":4}","trial","68582","survey-likert","31","355854","0.0-5.0-0.20","30","1","2022-11-29 21:24:55","2df368f4e41f066fd1c82c297b4a1108","177.226.116.219","Mozilla/5.0 (Windows NT 10.0; Win64; x64) AppleWebKit/537.36 (KHTML, like Gecko) Chrome/107.0.0.0 Safari/537.36","WebKit","Chrome","107.0.0.0","Windows","10.0","[0]","","4","4",""
"6589","You drop a bowling ball on an iPhone <br> T&uacute tiras una bola de boliche a un iPhone","{""Q0"":4}","trial","68582","survey-likert","32","362450","0.0-5.0-0.21","30","1","2022-11-29 21:24:55","2df368f4e41f066fd1c82c297b4a1108","177.226.116.219","Mozilla/5.0 (Windows NT 10.0; Win64; x64) AppleWebKit/537.36 (KHTML, like Gecko) Chrome/107.0.0.0 Safari/537.36","WebKit","Chrome","107.0.0.0","Windows","10.0","[0]","","13","4",""
"7343","You see how a parrot is eating an apple <br> T&uacute ves como un loro est&aacute comiendo una manzana","{""Q0"":4}","trial","68582","survey-likert","33","369798","0.0-5.0-0.22","30","1","2022-11-29 21:24:55","2df368f4e41f066fd1c82c297b4a1108","177.226.116.219","Mozilla/5.0 (Windows NT 10.0; Win64; x64) AppleWebKit/537.36 (KHTML, like Gecko) Chrome/107.0.0.0 Safari/537.36","WebKit","Chrome","107.0.0.0","Windows","10.0","[0]","","58","4",""
"8358","You drop a ring on the newspaper <br> T&uacute tiras un anillo al peri&oacutedico","{""Q0"":3}","trial","68582","survey-likert","34","378162","0.0-5.0-0.23","30","1","2022-11-29 21:24:55","2df368f4e41f066fd1c82c297b4a1108","177.226.116.219","Mozilla/5.0 (Windows NT 10.0; Win64; x64) AppleWebKit/537.36 (KHTML, like Gecko) Chrome/107.0.0.0 Safari/537.36","WebKit","Chrome","107.0.0.0","Windows","10.0","[0]","","41","3",""
"12302","You drop a bowling ball on a chocolate ice-cream <br> T&uacute tiras una bola de boliche a un helado de chocolate","{""Q0"":4}","trial","68582","survey-likert","35","390471","0.0-5.0-0.24","30","1","2022-11-29 21:24:55","2df368f4e41f066fd1c82c297b4a1108","177.226.116.219","Mozilla/5.0 (Windows NT 10.0; Win64; x64) AppleWebKit/537.36 (KHTML, like Gecko) Chrome/107.0.0.0 Safari/537.36","WebKit","Chrome","107.0.0.0","Windows","10.0","[0]","","11","4",""
"14999","You drop a fork on the plate <br> T&uacute tiras un tenedor al plato","{""Q0"":3}","trial","68582","survey-likert","36","405476","0.0-5.0-0.25","30","1","2022-11-29 21:24:55","2df368f4e41f066fd1c82c297b4a1108","177.226.116.219","Mozilla/5.0 (Windows NT 10.0; Win64; x64) AppleWebKit/537.36 (KHTML, like Gecko) Chrome/107.0.0.0 Safari/537.36","WebKit","Chrome","107.0.0.0","Windows","10.0","[0]","","26","3",""
"7198","You see how a police officer is talking on the phone <br> T&uacute ves como un polic&iacutea est&aacute hablando por el tel&eacutefono","{""Q0"":4}","trial","68582","survey-likert","37","412680","0.0-5.0-0.26","30","1","2022-11-29 21:24:55","2df368f4e41f066fd1c82c297b4a1108","177.226.116.219","Mozilla/5.0 (Windows NT 10.0; Win64; x64) AppleWebKit/537.36 (KHTML, like Gecko) Chrome/107.0.0.0 Safari/537.36","WebKit","Chrome","107.0.0.0","Windows","10.0","[0]","","62","4",""
"42982","You drop a needle on the mouse pad <br> T&uacute tiras una aguja a la alfombrilla para el rat&oacuten","{""Q0"":1}","trial","68582","survey-likert","38","455669","0.0-5.0-0.27","30","1","2022-11-29 21:24:55","2df368f4e41f066fd1c82c297b4a1108","177.226.116.219","Mozilla/5.0 (Windows NT 10.0; Win64; x64) AppleWebKit/537.36 (KHTML, like Gecko) Chrome/107.0.0.0 Safari/537.36","WebKit","Chrome","107.0.0.0","Windows","10.0","[0]","","42","1",""
"46898","You drop a needle on the mouse pad <br> T&uacute tiras una aguja a la alfombrilla para el rat&oacuten","{""Q0"":""In spanish we use \""mouse pad\"" to refer to that object, it doesn't need a translation.""}","low_rate","68582","survey-text","39","502574","0.0-5.0-1.27-0.27","30","1","2022-11-29 21:24:55","2df368f4e41f066fd1c82c297b4a1108","177.226.116.219","Mozilla/5.0 (Windows NT 10.0; Win64; x64) AppleWebKit/537.36 (KHTML, like Gecko) Chrome/107.0.0.0 Safari/537.36","WebKit","Chrome","107.0.0.0","Windows","10.0","","","42","",""
"12624","You drop a bowling ball on glasses <br> T&uacute tiras una bola de boliche a unas gafas","{""Q0"":3}","trial","68582","survey-likert","40","515200","0.0-5.0-0.28","30","1","2022-11-29 21:24:55","2df368f4e41f066fd1c82c297b4a1108","177.226.116.219","Mozilla/5.0 (Windows NT 10.0; Win64; x64) AppleWebKit/537.36 (KHTML, like Gecko) Chrome/107.0.0.0 Safari/537.36","WebKit","Chrome","107.0.0.0","Windows","10.0","[0]","","9","3",""
"12744","You drop a bowling ball on a rice cake <br> T&uacute tiras una bola de boliche a una tortita de arroz","{""Q0"":4}","trial","68582","survey-likert","41","527950","0.0-5.0-0.29","30","1","2022-11-29 21:24:55","2df368f4e41f066fd1c82c297b4a1108","177.226.116.219","Mozilla/5.0 (Windows NT 10.0; Win64; x64) AppleWebKit/537.36 (KHTML, like Gecko) Chrome/107.0.0.0 Safari/537.36","WebKit","Chrome","107.0.0.0","Windows","10.0","[0]","","18","4",""
"7565","You drop a bowling ball on a tomato <br> T&uacute tiras una bola de boliche a un tomate","{""Q0"":4}","trial","68582","survey-likert","42","535522","0.0-5.0-0.30","30","1","2022-11-29 21:24:55","2df368f4e41f066fd1c82c297b4a1108","177.226.116.219","Mozilla/5.0 (Windows NT 10.0; Win64; x64) AppleWebKit/537.36 (KHTML, like Gecko) Chrome/107.0.0.0 Safari/537.36","WebKit","Chrome","107.0.0.0","Windows","10.0","[0]","","23","4",""
"4952","You see how a boy is peeling a banana <br> T&uacute ves como un ni&ntildeo est&aacute pelando una banana","{""Q0"":4}","trial","68582","survey-likert","43","540480","0.0-5.0-0.31","30","1","2022-11-29 21:24:55","2df368f4e41f066fd1c82c297b4a1108","177.226.116.219","Mozilla/5.0 (Windows NT 10.0; Win64; x64) AppleWebKit/537.36 (KHTML, like Gecko) Chrome/107.0.0.0 Safari/537.36","WebKit","Chrome","107.0.0.0","Windows","10.0","[0]","","30","4",""
"10425","You drop a bowling ball on a strawberry <br> T&uacute tiras una bola de boliche a una fresa","{""Q0"":4}","trial","68582","survey-likert","44","550912","0.0-5.0-0.32","30","1","2022-11-29 21:24:55","2df368f4e41f066fd1c82c297b4a1108","177.226.116.219","Mozilla/5.0 (Windows NT 10.0; Win64; x64) AppleWebKit/537.36 (KHTML, like Gecko) Chrome/107.0.0.0 Safari/537.36","WebKit","Chrome","107.0.0.0","Windows","10.0","[0]","","20","4",""
"3557","You drop a bowling ball on a blackberry <br> T&uacute tiras una bola de boliche a una mora","{""Q0"":4}","trial","68582","survey-likert","45","554476","0.0-5.0-0.33","30","1","2022-11-29 21:24:55","2df368f4e41f066fd1c82c297b4a1108","177.226.116.219","Mozilla/5.0 (Windows NT 10.0; Win64; x64) AppleWebKit/537.36 (KHTML, like Gecko) Chrome/107.0.0.0 Safari/537.36","WebKit","Chrome","107.0.0.0","Windows","10.0","[0]","","8","4",""
"7274","You see how a cook is taking a knife <br> T&uacute ves como un cocinero est&aacute agarrando un cuchillo","{""Q0"":4}","trial","68582","survey-likert","46","561756","0.0-5.0-0.34","30","1","2022-11-29 21:24:55","2df368f4e41f066fd1c82c297b4a1108","177.226.116.219","Mozilla/5.0 (Windows NT 10.0; Win64; x64) AppleWebKit/537.36 (KHTML, like Gecko) Chrome/107.0.0.0 Safari/537.36","WebKit","Chrome","107.0.0.0","Windows","10.0","[0]","","71","4",""
"6281","You drop a bowling ball on a ceramic plate <br> T&uacute tiras una bola de boliche a un plato de cer&aacutemica","{""Q0"":4}","trial","68582","survey-likert","47","568044","0.0-5.0-0.35","30","1","2022-11-29 21:24:55","2df368f4e41f066fd1c82c297b4a1108","177.226.116.219","Mozilla/5.0 (Windows NT 10.0; Win64; x64) AppleWebKit/537.36 (KHTML, like Gecko) Chrome/107.0.0.0 Safari/537.36","WebKit","Chrome","107.0.0.0","Windows","10.0","[0]","","19","4",""
"6367","You see how a panda is resting on a tree <br> T&uacute ves como un panda est&aacute descansando en un &aacuterbol","{""Q0"":4}","trial","68582","survey-likert","48","574418","0.0-5.0-0.36","30","1","2022-11-29 21:24:55","2df368f4e41f066fd1c82c297b4a1108","177.226.116.219","Mozilla/5.0 (Windows NT 10.0; Win64; x64) AppleWebKit/537.36 (KHTML, like Gecko) Chrome/107.0.0.0 Safari/537.36","WebKit","Chrome","107.0.0.0","Windows","10.0","[0]","","57","4",""
"11333","You drop a bowling ball on an egg flan <br> T&uacute tiras una bola de boliche a un flan","{""Q0"":4}","trial","68582","survey-likert","49","585758","0.0-5.0-0.37","30","1","2022-11-29 21:24:55","2df368f4e41f066fd1c82c297b4a1108","177.226.116.219","Mozilla/5.0 (Windows NT 10.0; Win64; x64) AppleWebKit/537.36 (KHTML, like Gecko) Chrome/107.0.0.0 Safari/537.36","WebKit","Chrome","107.0.0.0","Windows","10.0","[0]","","7","4",""
"9485","You see how a kitten is playing in the sandbox <br> T&uacute ves como un gatito est&aacute jugando en la caja de arena","{""Q0"":4}","trial","68582","survey-likert","50","595250","0.0-5.0-0.38","30","1","2022-11-29 21:24:55","2df368f4e41f066fd1c82c297b4a1108","177.226.116.219","Mozilla/5.0 (Windows NT 10.0; Win64; x64) AppleWebKit/537.36 (KHTML, like Gecko) Chrome/107.0.0.0 Safari/537.36","WebKit","Chrome","107.0.0.0","Windows","10.0","[0]","","52","4",""
"7738","You drop a pencil on the shoe <br> T&uacute tiras un l&aacutepiz al zapato","{""Q0"":3}","trial","68582","survey-likert","51","602997","0.0-5.0-0.39","30","1","2022-11-29 21:24:55","2df368f4e41f066fd1c82c297b4a1108","177.226.116.219","Mozilla/5.0 (Windows NT 10.0; Win64; x64) AppleWebKit/537.36 (KHTML, like Gecko) Chrome/107.0.0.0 Safari/537.36","WebKit","Chrome","107.0.0.0","Windows","10.0","[0]","","40","3",""
"8388","You drop a bowling ball on a porcelain figure <br> T&uacute tiras una bola de boliche a una figura de porcelana","{""Q0"":3}","trial","68582","survey-likert","52","611393","0.0-5.0-0.40","30","1","2022-11-29 21:24:55","2df368f4e41f066fd1c82c297b4a1108","177.226.116.219","Mozilla/5.0 (Windows NT 10.0; Win64; x64) AppleWebKit/537.36 (KHTML, like Gecko) Chrome/107.0.0.0 Safari/537.36","WebKit","Chrome","107.0.0.0","Windows","10.0","[0]","","1","3",""
"4480","You see how a giraffe is playing with a zebra <br> T&uacute ves como una jirafa est&aacute jugando con una cebra","{""Q0"":4}","trial","68582","survey-likert","53","615881","0.0-5.0-0.41","30","1","2022-11-29 21:24:55","2df368f4e41f066fd1c82c297b4a1108","177.226.116.219","Mozilla/5.0 (Windows NT 10.0; Win64; x64) AppleWebKit/537.36 (KHTML, like Gecko) Chrome/107.0.0.0 Safari/537.36","WebKit","Chrome","107.0.0.0","Windows","10.0","[0]","","65","4",""
"5646","You drop a keyboard on the bed <br> T&uacute tiras un teclado a la cama","{""Q0"":4}","trial","68582","survey-likert","54","621535","0.0-5.0-0.42","30","1","2022-11-29 21:24:55","2df368f4e41f066fd1c82c297b4a1108","177.226.116.219","Mozilla/5.0 (Windows NT 10.0; Win64; x64) AppleWebKit/537.36 (KHTML, like Gecko) Chrome/107.0.0.0 Safari/537.36","WebKit","Chrome","107.0.0.0","Windows","10.0","[0]","","36","4",""
"8185","You drop a bowling ball on a mirror <br> T&uacute tiras una bola de boliche a un espejo","{""Q0"":4}","trial","68582","survey-likert","55","629727","0.0-5.0-0.43","30","1","2022-11-29 21:24:55","2df368f4e41f066fd1c82c297b4a1108","177.226.116.219","Mozilla/5.0 (Windows NT 10.0; Win64; x64) AppleWebKit/537.36 (KHTML, like Gecko) Chrome/107.0.0.0 Safari/537.36","WebKit","Chrome","107.0.0.0","Windows","10.0","[0]","","15","4",""
"5159","You drop a bowling ball on a wine glass <br> T&uacute tiras una bola de boliche a una copa de vino","{""Q0"":3}","trial","68582","survey-likert","56","634893","0.0-5.0-0.44","30","1","2022-11-29 21:24:55","2df368f4e41f066fd1c82c297b4a1108","177.226.116.219","Mozilla/5.0 (Windows NT 10.0; Win64; x64) AppleWebKit/537.36 (KHTML, like Gecko) Chrome/107.0.0.0 Safari/537.36","WebKit","Chrome","107.0.0.0","Windows","10.0","[0]","","5","3",""
"19287","You drop a watch on the laptop <br> T&uacute tiras un reloj al port&aacutetil","{""Q0"":1}","trial","68582","survey-likert","57","654186","0.0-5.0-0.45","30","1","2022-11-29 21:24:55","2df368f4e41f066fd1c82c297b4a1108","177.226.116.219","Mozilla/5.0 (Windows NT 10.0; Win64; x64) AppleWebKit/537.36 (KHTML, like Gecko) Chrome/107.0.0.0 Safari/537.36","WebKit","Chrome","107.0.0.0","Windows","10.0","[0]","","37","1",""
"25908","You drop a watch on the laptop <br> T&uacute tiras un reloj al port&aacutetil","{""Q0"":""In spanish we call a laptop \""laptop\"".""}","low_rate","68582","survey-text","58","680102","0.0-5.0-1.45-0.45","30","1","2022-11-29 21:24:55","2df368f4e41f066fd1c82c297b4a1108","177.226.116.219","Mozilla/5.0 (Windows NT 10.0; Win64; x64) AppleWebKit/537.36 (KHTML, like Gecko) Chrome/107.0.0.0 Safari/537.36","WebKit","Chrome","107.0.0.0","Windows","10.0","","","37","",""
"12436","You drop a bowling ball on a piece of sushi <br> T&uacute tiras una bola de boliche a un pedazo de sushi","{""Q0"":4}","trial","68582","survey-likert","59","692540","0.0-5.0-0.46","30","1","2022-11-29 21:24:55","2df368f4e41f066fd1c82c297b4a1108","177.226.116.219","Mozilla/5.0 (Windows NT 10.0; Win64; x64) AppleWebKit/537.36 (KHTML, like Gecko) Chrome/107.0.0.0 Safari/537.36","WebKit","Chrome","107.0.0.0","Windows","10.0","[0]","","21","4",""
"5469","You drop a thermometer on the box <br> T&uacute tiras un term&oacutemetro a la caja","{""Q0"":3}","trial","68582","survey-likert","60","698016","0.0-5.0-0.47","30","1","2022-11-29 21:24:55","2df368f4e41f066fd1c82c297b4a1108","177.226.116.219","Mozilla/5.0 (Windows NT 10.0; Win64; x64) AppleWebKit/537.36 (KHTML, like Gecko) Chrome/107.0.0.0 Safari/537.36","WebKit","Chrome","107.0.0.0","Windows","10.0","[0]","","70","3",""
"5905","You see how a postman is driving a car <br> T&uacute ves como un cartero est&aacute conduciendo un coche","{""Q0"":4}","trial","68582","survey-likert","61","703928","0.0-5.0-0.48","30","1","2022-11-29 21:24:55","2df368f4e41f066fd1c82c297b4a1108","177.226.116.219","Mozilla/5.0 (Windows NT 10.0; Win64; x64) AppleWebKit/537.36 (KHTML, like Gecko) Chrome/107.0.0.0 Safari/537.36","WebKit","Chrome","107.0.0.0","Windows","10.0","[0]","","32","4",""
"4779","You see how a horse is chewing hay <br> T&uacute ves como un caballo est&aacute masticando el heno","{""Q0"":4}","trial","68582","survey-likert","62","708714","0.0-5.0-0.49","30","1","2022-11-29 21:24:55","2df368f4e41f066fd1c82c297b4a1108","177.226.116.219","Mozilla/5.0 (Windows NT 10.0; Win64; x64) AppleWebKit/537.36 (KHTML, like Gecko) Chrome/107.0.0.0 Safari/537.36","WebKit","Chrome","107.0.0.0","Windows","10.0","[0]","","55","4",""
"9802","You see how a hairdresser is taking scissors <br> T&uacute ves como una peluquera est&aacute agarrando las tijeras","{""Q0"":4}","trial","68582","survey-likert","63","718523","0.0-5.0-0.50","30","1","2022-11-29 21:24:55","2df368f4e41f066fd1c82c297b4a1108","177.226.116.219","Mozilla/5.0 (Windows NT 10.0; Win64; x64) AppleWebKit/537.36 (KHTML, like Gecko) Chrome/107.0.0.0 Safari/537.36","WebKit","Chrome","107.0.0.0","Windows","10.0","[0]","","60","4",""
"4299","You see how a thief is stealing a wallet <br> T&uacute ves como un ladr&oacuten est&aacute robando una billetera","{""Q0"":4}","trial","68582","survey-likert","64","722829","0.0-5.0-0.51","30","1","2022-11-29 21:24:55","2df368f4e41f066fd1c82c297b4a1108","177.226.116.219","Mozilla/5.0 (Windows NT 10.0; Win64; x64) AppleWebKit/537.36 (KHTML, like Gecko) Chrome/107.0.0.0 Safari/537.36","WebKit","Chrome","107.0.0.0","Windows","10.0","[0]","","68","4",""
"6370","You see how a president is writing in the notebook <br> T&uacute ves como un presidente est&aacute escribiendo en la libreta","{""Q0"":4}","trial","68582","survey-likert","65","729207","0.0-5.0-0.52","30","1","2022-11-29 21:24:55","2df368f4e41f066fd1c82c297b4a1108","177.226.116.219","Mozilla/5.0 (Windows NT 10.0; Win64; x64) AppleWebKit/537.36 (KHTML, like Gecko) Chrome/107.0.0.0 Safari/537.36","WebKit","Chrome","107.0.0.0","Windows","10.0","[0]","","63","4",""
"11147","You see how an astronaut is putting on a space suit <br> T&uacute ves como un astronauta se est&aacute poniendo su traje espacial","{""Q0"":3}","trial","68582","survey-likert","66","740360","0.0-5.0-0.53","30","1","2022-11-29 21:24:55","2df368f4e41f066fd1c82c297b4a1108","177.226.116.219","Mozilla/5.0 (Windows NT 10.0; Win64; x64) AppleWebKit/537.36 (KHTML, like Gecko) Chrome/107.0.0.0 Safari/537.36","WebKit","Chrome","107.0.0.0","Windows","10.0","[0]","","33","3",""
"6573","You drop a bowling ball on a tile <br> T&uacute tiras una bola de boliche a una baldosa","{""Q0"":3}","trial","68582","survey-likert","67","746940","0.0-5.0-0.54","30","1","2022-11-29 21:24:55","2df368f4e41f066fd1c82c297b4a1108","177.226.116.219","Mozilla/5.0 (Windows NT 10.0; Win64; x64) AppleWebKit/537.36 (KHTML, like Gecko) Chrome/107.0.0.0 Safari/537.36","WebKit","Chrome","107.0.0.0","Windows","10.0","[0]","","22","3",""
"9373","You see how a zebra is playing with a horse <br> T&uacute ves como una cebra est&aacute jugando con un caballo","{""Q0"":4}","trial","68582","survey-likert","68","756320","0.0-5.0-0.55","30","1","2022-11-29 21:24:55","2df368f4e41f066fd1c82c297b4a1108","177.226.116.219","Mozilla/5.0 (Windows NT 10.0; Win64; x64) AppleWebKit/537.36 (KHTML, like Gecko) Chrome/107.0.0.0 Safari/537.36","WebKit","Chrome","107.0.0.0","Windows","10.0","[0]","","66","4",""
"8357","You see how a butterfly is sitting on a flower <br> T&uacute ves como una mariposa est&aacute reposando en una flor","{""Q0"":4}","trial","68582","survey-likert","69","764684","0.0-5.0-0.56","30","1","2022-11-29 21:24:55","2df368f4e41f066fd1c82c297b4a1108","177.226.116.219","Mozilla/5.0 (Windows NT 10.0; Win64; x64) AppleWebKit/537.36 (KHTML, like Gecko) Chrome/107.0.0.0 Safari/537.36","WebKit","Chrome","107.0.0.0","Windows","10.0","[0]","","59","4",""
"14331","You drop a bowling ball on a piece of cake <br> T&uacute tiras una bola de boliche a un trozo de pastel","{""Q0"":3}","trial","68582","survey-likert","70","779022","0.0-5.0-0.57","30","1","2022-11-29 21:24:55","2df368f4e41f066fd1c82c297b4a1108","177.226.116.219","Mozilla/5.0 (Windows NT 10.0; Win64; x64) AppleWebKit/537.36 (KHTML, like Gecko) Chrome/107.0.0.0 Safari/537.36","WebKit","Chrome","107.0.0.0","Windows","10.0","[0]","","2","3",""
"5469","You drop a bowling ball on a donut <br> T&uacute tiras una bola de boliche a una rosquilla","{""Q0"":3}","trial","68582","survey-likert","71","784498","0.0-5.0-0.58","30","1","2022-11-29 21:24:55","2df368f4e41f066fd1c82c297b4a1108","177.226.116.219","Mozilla/5.0 (Windows NT 10.0; Win64; x64) AppleWebKit/537.36 (KHTML, like Gecko) Chrome/107.0.0.0 Safari/537.36","WebKit","Chrome","107.0.0.0","Windows","10.0","[0]","","17","3",""
"5655","You drop a cushion on the magazine <br> T&uacute tiras un coj&iacuten a la revista","{""Q0"":3}","trial","68582","survey-likert","72","790160","0.0-5.0-0.59","30","1","2022-11-29 21:24:55","2df368f4e41f066fd1c82c297b4a1108","177.226.116.219","Mozilla/5.0 (Windows NT 10.0; Win64; x64) AppleWebKit/537.36 (KHTML, like Gecko) Chrome/107.0.0.0 Safari/537.36","WebKit","Chrome","107.0.0.0","Windows","10.0","[0]","","38","3",""
"8580","You see how a dentist is drinking a can of cola <br> T&uacute ves como un dentista est&aacute bebiendo una lata de cola","{""Q0"":4}","trial","68582","survey-likert","73","798748","0.0-5.0-0.60","30","1","2022-11-29 21:24:55","2df368f4e41f066fd1c82c297b4a1108","177.226.116.219","Mozilla/5.0 (Windows NT 10.0; Win64; x64) AppleWebKit/537.36 (KHTML, like Gecko) Chrome/107.0.0.0 Safari/537.36","WebKit","Chrome","107.0.0.0","Windows","10.0","[0]","","47","4",""
"16761","You see how a man is boiling potatoes <br> T&uacute ves a un hombre est&aacute hirviendo papas","{""Q0"":0}","trial","68582","survey-likert","74","815516","0.0-5.0-0.61","30","1","2022-11-29 21:24:55","2df368f4e41f066fd1c82c297b4a1108","177.226.116.219","Mozilla/5.0 (Windows NT 10.0; Win64; x64) AppleWebKit/537.36 (KHTML, like Gecko) Chrome/107.0.0.0 Safari/537.36","WebKit","Chrome","107.0.0.0","Windows","10.0","[0]","","46","0",""
"15657","You see how a man is boiling potatoes <br> T&uacute ves a un hombre est&aacute hirviendo papas","{""Q0"":""Tú ves como un hombre está hirviendo papas.""}","low_rate","68582","survey-text","75","831182","0.0-5.0-1.61-0.61","30","1","2022-11-29 21:24:55","2df368f4e41f066fd1c82c297b4a1108","177.226.116.219","Mozilla/5.0 (Windows NT 10.0; Win64; x64) AppleWebKit/537.36 (KHTML, like Gecko) Chrome/107.0.0.0 Safari/537.36","WebKit","Chrome","107.0.0.0","Windows","10.0","","","46","",""
"6255","You see how a photographer is taking a photo of a lion <br> T&uacute ves como un fot&oacutegrafo est&aacute tomando una foto de un le&oacuten","{""Q0"":4}","trial","68582","survey-likert","76","837440","0.0-5.0-0.62","30","1","2022-11-29 21:24:55","2df368f4e41f066fd1c82c297b4a1108","177.226.116.219","Mozilla/5.0 (Windows NT 10.0; Win64; x64) AppleWebKit/537.36 (KHTML, like Gecko) Chrome/107.0.0.0 Safari/537.36","WebKit","Chrome","107.0.0.0","Windows","10.0","[0]","","72","4",""
"21929","You see how a mouse is eating cheese <br> T&uacute ves como el rat&oacuten est&aacute comiendo queso","{""Q0"":1}","trial","68582","survey-likert","77","859376","0.0-5.0-0.63","30","1","2022-11-29 21:24:55","2df368f4e41f066fd1c82c297b4a1108","177.226.116.219","Mozilla/5.0 (Windows NT 10.0; Win64; x64) AppleWebKit/537.36 (KHTML, like Gecko) Chrome/107.0.0.0 Safari/537.36","WebKit","Chrome","107.0.0.0","Windows","10.0","[0]","","56","1",""
"15598","You see how a mouse is eating cheese <br> T&uacute ves como el rat&oacuten est&aacute comiendo queso","{""Q0"":""Tú ves como UN ratón está comiendo queso.""}","low_rate","68582","survey-text","78","874982","0.0-5.0-1.63-0.63","30","1","2022-11-29 21:24:55","2df368f4e41f066fd1c82c297b4a1108","177.226.116.219","Mozilla/5.0 (Windows NT 10.0; Win64; x64) AppleWebKit/537.36 (KHTML, like Gecko) Chrome/107.0.0.0 Safari/537.36","WebKit","Chrome","107.0.0.0","Windows","10.0","","","56","",""
"32643","You drop a bowling ball on a chocolate muffin <br> T&uacute tiras una bola de boliche a una magdalena de chocolate","{""Q0"":4}","trial","68582","survey-likert","79","907628","0.0-5.0-0.64","30","1","2022-11-29 21:24:55","2df368f4e41f066fd1c82c297b4a1108","177.226.116.219","Mozilla/5.0 (Windows NT 10.0; Win64; x64) AppleWebKit/537.36 (KHTML, like Gecko) Chrome/107.0.0.0 Safari/537.36","WebKit","Chrome","107.0.0.0","Windows","10.0","[0]","","16","4",""
"7704","You see how a pilot is reading a book <br> T&uacute ves como un piloto est&aacute leyendo un libro","{""Q0"":4}","trial","68582","survey-likert","80","915340","0.0-5.0-0.65","30","1","2022-11-29 21:24:55","2df368f4e41f066fd1c82c297b4a1108","177.226.116.219","Mozilla/5.0 (Windows NT 10.0; Win64; x64) AppleWebKit/537.36 (KHTML, like Gecko) Chrome/107.0.0.0 Safari/537.36","WebKit","Chrome","107.0.0.0","Windows","10.0","[0]","","61","4",""
"20143","You see how a woman is taking money out of a wallet <br> T&uacute ves como una mujer est&aacute sacando dinero de su billetera","{""Q0"":1}","trial","68582","survey-likert","81","935490","0.0-5.0-0.66","30","1","2022-11-29 21:24:55","2df368f4e41f066fd1c82c297b4a1108","177.226.116.219","Mozilla/5.0 (Windows NT 10.0; Win64; x64) AppleWebKit/537.36 (KHTML, like Gecko) Chrome/107.0.0.0 Safari/537.36","WebKit","Chrome","107.0.0.0","Windows","10.0","[0]","","44","1",""
"18988","You see how a woman is taking money out of a wallet <br> T&uacute ves como una mujer est&aacute sacando dinero de su billetera","{""Q0"":""Tú ves como una mujer está sacando dinero de UNA billetera.""}","low_rate","68582","survey-text","82","954486","0.0-5.0-1.66-0.66","30","1","2022-11-29 21:24:55","2df368f4e41f066fd1c82c297b4a1108","177.226.116.219","Mozilla/5.0 (Windows NT 10.0; Win64; x64) AppleWebKit/537.36 (KHTML, like Gecko) Chrome/107.0.0.0 Safari/537.36","WebKit","Chrome","107.0.0.0","Windows","10.0","","","44","",""
"5945","You drop a toothbrush on the sponge <br> T&uacute tiras un cepillo de dientes en la esponja","{""Q0"":4}","trial","68582","survey-likert","83","960434","0.0-5.0-0.67","30","1","2022-11-29 21:24:55","2df368f4e41f066fd1c82c297b4a1108","177.226.116.219","Mozilla/5.0 (Windows NT 10.0; Win64; x64) AppleWebKit/537.36 (KHTML, like Gecko) Chrome/107.0.0.0 Safari/537.36","WebKit","Chrome","107.0.0.0","Windows","10.0","[0]","","25","4",""
"27473","You see how a cat is drinking water from a bowl <br> T&uacute ves como un gato est&aacute bebiendo agua de un cuenco","{""Q0"":4}","trial","68582","survey-likert","84","987914","0.0-5.0-0.68","30","1","2022-11-29 21:24:55","2df368f4e41f066fd1c82c297b4a1108","177.226.116.219","Mozilla/5.0 (Windows NT 10.0; Win64; x64) AppleWebKit/537.36 (KHTML, like Gecko) Chrome/107.0.0.0 Safari/537.36","WebKit","Chrome","107.0.0.0","Windows","10.0","[0]","","28","4",""
"16571","You see how a student is writing on a board <br> T&uacute ves como un estudiante est&aacute escribiendo en la pizarra","{""Q0"":1}","trial","68582","survey-likert","85","1004494","0.0-5.0-0.69","30","1","2022-11-29 21:24:55","2df368f4e41f066fd1c82c297b4a1108","177.226.116.219","Mozilla/5.0 (Windows NT 10.0; Win64; x64) AppleWebKit/537.36 (KHTML, like Gecko) Chrome/107.0.0.0 Safari/537.36","WebKit","Chrome","107.0.0.0","Windows","10.0","[0]","","50","1",""
"20093","You see how a student is writing on a board <br> T&uacute ves como un estudiante est&aacute escribiendo en la pizarra","{""Q0"":""Tú ves como un estudiante está escribiendo en UNA pizarra.""}","low_rate","68582","survey-text","86","1024596","0.0-5.0-1.69-0.69","30","1","2022-11-29 21:24:55","2df368f4e41f066fd1c82c297b4a1108","177.226.116.219","Mozilla/5.0 (Windows NT 10.0; Win64; x64) AppleWebKit/537.36 (KHTML, like Gecko) Chrome/107.0.0.0 Safari/537.36","WebKit","Chrome","107.0.0.0","Windows","10.0","","","50","",""
"6311","You see how an elephant is eating a watermelon <br> T&uacute ves como un elefante est&aacute comiendo una sand&iacutea","{""Q0"":4}","trial","68582","survey-likert","87","1030910","0.0-5.0-0.70","30","1","2022-11-29 21:24:55","2df368f4e41f066fd1c82c297b4a1108","177.226.116.219","Mozilla/5.0 (Windows NT 10.0; Win64; x64) AppleWebKit/537.36 (KHTML, like Gecko) Chrome/107.0.0.0 Safari/537.36","WebKit","Chrome","107.0.0.0","Windows","10.0","[0]","","31","4",""
"4371","You see how a donkey is drinking water <br> T&uacute ves como un burro est&aacute bebiendo agua","{""Q0"":4}","trial","68582","survey-likert","88","1035290","0.0-5.0-0.71","30","1","2022-11-29 21:24:55","2df368f4e41f066fd1c82c297b4a1108","177.226.116.219","Mozilla/5.0 (Windows NT 10.0; Win64; x64) AppleWebKit/537.36 (KHTML, like Gecko) Chrome/107.0.0.0 Safari/537.36","WebKit","Chrome","107.0.0.0","Windows","10.0","[0]","","45","4",""
"8560","
    <p style=""font-size:20px;""> You have completed the experiment portion! </p>
    <p style=""font-size:20px;""> Before you are done, we would like you to answer some basic demographic questions. </p>
    <p style=""font-size:20px;""> Note that your answers to these questions will not affect your compensation/credit. </p>
    <p style=""font-size:20px;""> Click the button below to continue.</p>
    ","0","demo","68582","html-button-response","89","1043859","0.0-6.0","30","1","2022-11-29 21:24:55","2df368f4e41f066fd1c82c297b4a1108","177.226.116.219","Mozilla/5.0 (Windows NT 10.0; Win64; x64) AppleWebKit/537.36 (KHTML, like Gecko) Chrome/107.0.0.0 Safari/537.36","WebKit","Chrome","107.0.0.0","Windows","10.0","","","","",""
"19748","","{""Age"":""27"",""Gender"":""Male"",""Education"":""16""}","demo","68582","survey-text","90","1063613","0.0-7.0-0.0","30","1","2022-11-29 21:24:55","2df368f4e41f066fd1c82c297b4a1108","177.226.116.219","Mozilla/5.0 (Windows NT 10.0; Win64; x64) AppleWebKit/537.36 (KHTML, like Gecko) Chrome/107.0.0.0 Safari/537.36","WebKit","Chrome","107.0.0.0","Windows","10.0","","","","",""
"14974","","{""Race"":[""Other""]}","demo","68582","survey-multi-select","91","1078593","0.0-7.0-1.0","30","1","2022-11-29 21:24:55","2df368f4e41f066fd1c82c297b4a1108","177.226.116.219","Mozilla/5.0 (Windows NT 10.0; Win64; x64) AppleWebKit/537.36 (KHTML, like Gecko) Chrome/107.0.0.0 Safari/537.36","WebKit","Chrome","107.0.0.0","Windows","10.0","[0]","","","",""
"10068","","{""Latino"":""Yes"",""Alert"":""Afternoon""}","demo","68582","survey-multi-choice","92","1088668","0.0-7.0-2.0","30","1","2022-11-29 21:24:55","2df368f4e41f066fd1c82c297b4a1108","177.226.116.219","Mozilla/5.0 (Windows NT 10.0; Win64; x64) AppleWebKit/537.36 (KHTML, like Gecko) Chrome/107.0.0.0 Safari/537.36","WebKit","Chrome","107.0.0.0","Windows","10.0","[0,1]","","","",""
"20239","","{""Q0"":""Everything was fine.""}","demo","68582","survey-text","93","1108916","0.0-7.0-3.0","30","1","2022-11-29 21:24:55","2df368f4e41f066fd1c82c297b4a1108","177.226.116.219","Mozilla/5.0 (Windows NT 10.0; Win64; x64) AppleWebKit/537.36 (KHTML, like Gecko) Chrome/107.0.0.0 Safari/537.36","WebKit","Chrome","107.0.0.0","Windows","10.0","","","","",""
"15092","<p>Thank you for participating! </p><strong>Your completion code is: CXEJB7NH. Please copy-paste this code and submit it on Prolific.</strong><p>Click <a href=""https://drive.google.com/file/d/1c70cdHFlc0AaR6RujLWLJwWkv1RbHQJY/view?usp=sharing"" target=""_blank"" rel=""noopener noreferrer"">here</a> to access the debriefing form and know more about our research. <p> Please click the button below to finish the experiment and save your data.</p> <p> IMPORTANT: Please <strong>do not leave this page </strong> without clicking the button below.</p> <p> You may close the tab/window after you click the button below.","0","","","html-button-response","94","1124012","0.0-8.0","30","1","2022-11-29 21:24:55","2df368f4e41f066fd1c82c297b4a1108","177.226.116.219","Mozilla/5.0 (Windows NT 10.0; Win64; x64) AppleWebKit/537.36 (KHTML, like Gecko) Chrome/107.0.0.0 Safari/537.36","WebKit","Chrome","107.0.0.0","Windows","10.0","","","","",""
