"rt","stimulus","response","typeoftrial","subject","trial_type","trial_index","time_elapsed","internal_node_id","run_id","condition","recorded_at","source_code_version","ip","user_agent","device","browser","browser_version","platform","platform_version","question_order","practice_rating","sentence_num","rating","Experiment"
"6950","
        <p style=""font-size:20px;""> Welcome! Thank you for your interest in our study. </p>
        <p style=""font-size:20px;""> This study is being conducted by researchers at Bowdoin College.</p>
        <p style=""font-size:20px;""> In this experiment, you will be asked to rate the accuracy of English and Spanish translations.</p>
        <p style=""font-size:20px;""> The entire experiment should not last more than 20 minutes. You will be paid $3 USD for your participation. </p>
        <p style=""font-size:20px;""> Please click <a href = ""https://drive.google.com/file/d/1L92a02eEKCpaAEipmqDcBCDR7rsarqFE/view?usp=sharing"" target = ""_blank"">here</a> to read the full consent form. </p>
        <p style=""font-size:20px;""> If you agree to participate, please click the button below to continue to experiment instructions.</p>
        ","0","consent","94","html-button-response","0","6953","0.0-0.0","45","1","2022-11-29 21:25:10","2df368f4e41f066fd1c82c297b4a1108","201.141.108.50","Mozilla/5.0 (Macintosh; Intel Mac OS X 10_15_6) AppleWebKit/537.36 (KHTML, like Gecko) Chrome/105.0.0.0 Safari/537.36","Macintosh","Chrome","105.0.0.0","OS X","10_15_6","","","","",""
"79011","","{""ID"":""6140c26c2ee391b3f4601f01""}","ID","94","survey-text","1","85991","0.0-1.0","45","1","2022-11-29 21:25:10","2df368f4e41f066fd1c82c297b4a1108","201.141.108.50","Mozilla/5.0 (Macintosh; Intel Mac OS X 10_15_6) AppleWebKit/537.36 (KHTML, like Gecko) Chrome/105.0.0.0 Safari/537.36","Macintosh","Chrome","105.0.0.0","OS X","10_15_6","","","","",""
"16282","
        <p style=""font-size:20px;""> You are about to begin the practice test. </p>
        <p style=""font-size:20px;""> On each trial, you will see a sentence in English and its corresponding Spanish translation. </p>
        <p style=""font-size:20px;""> You will rate the accuracy of the translation on a scale from ""Not at all accurate"" to ""Very accurate."" </p>
        <p style=""font-size:20px;""> If you rate the translation as ""Somewhat innaccurate"" or ""Not at all accurate,"" you will be asked to provide your own translation or a reason why the translation is inaccurate. </p>
        <p style=""font-size:20px;""> Click the button below to continue to the practice session.</p>","0","instructions","94","html-button-response","2","102276","0.0-2.0","45","1","2022-11-29 21:25:10","2df368f4e41f066fd1c82c297b4a1108","201.141.108.50","Mozilla/5.0 (Macintosh; Intel Mac OS X 10_15_6) AppleWebKit/537.36 (KHTML, like Gecko) Chrome/105.0.0.0 Safari/537.36","Macintosh","Chrome","105.0.0.0","OS X","10_15_6","","","","",""
"6006","You see how a duck is playing with a pumpkin <br> T&uacute ves como un pato est&aacute jugando con una calabaza","{""Q0"":4}","practice","94","survey-likert","3","108285","0.0-3.0-0.0","45","1","2022-11-29 21:25:10","2df368f4e41f066fd1c82c297b4a1108","201.141.108.50","Mozilla/5.0 (Macintosh; Intel Mac OS X 10_15_6) AppleWebKit/537.36 (KHTML, like Gecko) Chrome/105.0.0.0 Safari/537.36","Macintosh","Chrome","105.0.0.0","OS X","10_15_6","[0]","4","","",""
"5653","You see how an artist is running <br> T&uacute ves como un artista est&aacute corriendo","{""Q0"":4}","practice","94","survey-likert","4","113943","0.0-3.0-0.1","45","1","2022-11-29 21:25:10","2df368f4e41f066fd1c82c297b4a1108","201.141.108.50","Mozilla/5.0 (Macintosh; Intel Mac OS X 10_15_6) AppleWebKit/537.36 (KHTML, like Gecko) Chrome/105.0.0.0 Safari/537.36","Macintosh","Chrome","105.0.0.0","OS X","10_15_6","[0]","4","","",""
"5753","You see how a teacher is drawing a picture <br> T&uacute ves como un maestro pinta una foto","{""Q0"":1}","practice","94","survey-likert","5","119701","0.0-3.0-0.2","45","1","2022-11-29 21:25:10","2df368f4e41f066fd1c82c297b4a1108","201.141.108.50","Mozilla/5.0 (Macintosh; Intel Mac OS X 10_15_6) AppleWebKit/537.36 (KHTML, like Gecko) Chrome/105.0.0.0 Safari/537.36","Macintosh","Chrome","105.0.0.0","OS X","10_15_6","[0]","1","","",""
"20113","You see how a teacher is drawing a picture <br> T&uacute ves como un maestro pinta una foto","{""Q0"":""It is translated literally when it can be interpreted a different way""}","practice_low_rate","94","survey-text","6","139819","0.0-3.0-1.2-0.2","45","1","2022-11-29 21:25:10","2df368f4e41f066fd1c82c297b4a1108","201.141.108.50","Mozilla/5.0 (Macintosh; Intel Mac OS X 10_15_6) AppleWebKit/537.36 (KHTML, like Gecko) Chrome/105.0.0.0 Safari/537.36","Macintosh","Chrome","105.0.0.0","OS X","10_15_6","","","4","",""
"11098","You see how a tiger is playing with a goose <br> T&uacute ves como un le&oacuten come una pizza","{""Q0"":0}","practice","94","survey-likert","7","150920","0.0-3.0-0.3","45","1","2022-11-29 21:25:10","2df368f4e41f066fd1c82c297b4a1108","201.141.108.50","Mozilla/5.0 (Macintosh; Intel Mac OS X 10_15_6) AppleWebKit/537.36 (KHTML, like Gecko) Chrome/105.0.0.0 Safari/537.36","Macintosh","Chrome","105.0.0.0","OS X","10_15_6","[0]","0","","",""
"10576","You see how a tiger is playing with a goose <br> T&uacute ves como un le&oacuten come una pizza","{""Q0"":""Tu ves como un tigre esta jugando con un ganzo""}","practice_low_rate","94","survey-text","8","161501","0.0-3.0-1.3-0.3","45","1","2022-11-29 21:25:10","2df368f4e41f066fd1c82c297b4a1108","201.141.108.50","Mozilla/5.0 (Macintosh; Intel Mac OS X 10_15_6) AppleWebKit/537.36 (KHTML, like Gecko) Chrome/105.0.0.0 Safari/537.36","Macintosh","Chrome","105.0.0.0","OS X","10_15_6","","","5","",""
"9975","You drop a bowling ball on a mircrowave <br> T&uacute tiras una bola de boliche a un horno","{""Q0"":3}","practice","94","survey-likert","9","171479","0.0-3.0-0.4","45","1","2022-11-29 21:25:10","2df368f4e41f066fd1c82c297b4a1108","201.141.108.50","Mozilla/5.0 (Macintosh; Intel Mac OS X 10_15_6) AppleWebKit/537.36 (KHTML, like Gecko) Chrome/105.0.0.0 Safari/537.36","Macintosh","Chrome","105.0.0.0","OS X","10_15_6","[0]","3","","",""
"4067","You drop a rock on a phone <br> T&uacute tiras una piedra a un tel&eacutefono","{""Q0"":3}","practice","94","survey-likert","10","175550","0.0-3.0-0.5","45","1","2022-11-29 21:25:10","2df368f4e41f066fd1c82c297b4a1108","201.141.108.50","Mozilla/5.0 (Macintosh; Intel Mac OS X 10_15_6) AppleWebKit/537.36 (KHTML, like Gecko) Chrome/105.0.0.0 Safari/537.36","Macintosh","Chrome","105.0.0.0","OS X","10_15_6","[0]","3","","",""
"1413","<p style=""font-size:20px;"">You have now completed the practice session! </p>
        <p style=""font-size:20px;"">You will now move on to the main experiment. </p>
        <p style=""font-size:20px;"">Please click the button below to continue. </p>","0","movetoexp","94","html-button-response","11","176967","0.0-4.0","45","1","2022-11-29 21:25:10","2df368f4e41f066fd1c82c297b4a1108","201.141.108.50","Mozilla/5.0 (Macintosh; Intel Mac OS X 10_15_6) AppleWebKit/537.36 (KHTML, like Gecko) Chrome/105.0.0.0 Safari/537.36","Macintosh","Chrome","105.0.0.0","OS X","10_15_6","","","","",""
"4121","You drop a ring on the newspaper <br> T&uacute tiras un anillo al peri&oacutedico","{""Q0"":4}","trial","94","survey-likert","12","181089","0.0-5.0-0.0","45","1","2022-11-29 21:25:10","2df368f4e41f066fd1c82c297b4a1108","201.141.108.50","Mozilla/5.0 (Macintosh; Intel Mac OS X 10_15_6) AppleWebKit/537.36 (KHTML, like Gecko) Chrome/105.0.0.0 Safari/537.36","Macintosh","Chrome","105.0.0.0","OS X","10_15_6","[0]","","41","4",""
"4332","You see how a man is shaving his beard <br> T&uacute ves como un hombre se est&aacute afeitando la barba","{""Q0"":4}","trial","94","survey-likert","13","185425","0.0-5.0-0.1","45","1","2022-11-29 21:25:10","2df368f4e41f066fd1c82c297b4a1108","201.141.108.50","Mozilla/5.0 (Macintosh; Intel Mac OS X 10_15_6) AppleWebKit/537.36 (KHTML, like Gecko) Chrome/105.0.0.0 Safari/537.36","Macintosh","Chrome","105.0.0.0","OS X","10_15_6","[0]","","43","4",""
"7009","You drop a bowling ball on a tomato <br> T&uacute tiras una bola de boliche a un tomate","{""Q0"":3}","trial","94","survey-likert","14","192439","0.0-5.0-0.2","45","1","2022-11-29 21:25:10","2df368f4e41f066fd1c82c297b4a1108","201.141.108.50","Mozilla/5.0 (Macintosh; Intel Mac OS X 10_15_6) AppleWebKit/537.36 (KHTML, like Gecko) Chrome/105.0.0.0 Safari/537.36","Macintosh","Chrome","105.0.0.0","OS X","10_15_6","[0]","","23","3",""
"3779","You drop a bowling ball on an egg <br> T&uacute tiras una bola de boliche a un huevo","{""Q0"":3}","trial","94","survey-likert","15","196223","0.0-5.0-0.3","45","1","2022-11-29 21:25:10","2df368f4e41f066fd1c82c297b4a1108","201.141.108.50","Mozilla/5.0 (Macintosh; Intel Mac OS X 10_15_6) AppleWebKit/537.36 (KHTML, like Gecko) Chrome/105.0.0.0 Safari/537.36","Macintosh","Chrome","105.0.0.0","OS X","10_15_6","[0]","","6","3",""
"3483","You drop a bowling ball on a tile <br> T&uacute tiras una bola de boliche a una baldosa","{""Q0"":4}","trial","94","survey-likert","16","199710","0.0-5.0-0.4","45","1","2022-11-29 21:25:10","2df368f4e41f066fd1c82c297b4a1108","201.141.108.50","Mozilla/5.0 (Macintosh; Intel Mac OS X 10_15_6) AppleWebKit/537.36 (KHTML, like Gecko) Chrome/105.0.0.0 Safari/537.36","Macintosh","Chrome","105.0.0.0","OS X","10_15_6","[0]","","22","4",""
"6610","You see how an actress is taking a microphone <br> T&uacute ves como una actriz est&aacute agarrando el micr&oacutefono","{""Q0"":3}","trial","94","survey-likert","17","206325","0.0-5.0-0.5","45","1","2022-11-29 21:25:10","2df368f4e41f066fd1c82c297b4a1108","201.141.108.50","Mozilla/5.0 (Macintosh; Intel Mac OS X 10_15_6) AppleWebKit/537.36 (KHTML, like Gecko) Chrome/105.0.0.0 Safari/537.36","Macintosh","Chrome","105.0.0.0","OS X","10_15_6","[0]","","51","3",""
"4667","You see how an astronaut is putting on a space suit <br> T&uacute ves como un astronauta se est&aacute poniendo su traje espacial","{""Q0"":4}","trial","94","survey-likert","18","210996","0.0-5.0-0.6","45","1","2022-11-29 21:25:10","2df368f4e41f066fd1c82c297b4a1108","201.141.108.50","Mozilla/5.0 (Macintosh; Intel Mac OS X 10_15_6) AppleWebKit/537.36 (KHTML, like Gecko) Chrome/105.0.0.0 Safari/537.36","Macintosh","Chrome","105.0.0.0","OS X","10_15_6","[0]","","33","4",""
"3695","You drop a pencil on the shoe <br> T&uacute tiras un l&aacutepiz al zapato","{""Q0"":3}","trial","94","survey-likert","19","214695","0.0-5.0-0.7","45","1","2022-11-29 21:25:10","2df368f4e41f066fd1c82c297b4a1108","201.141.108.50","Mozilla/5.0 (Macintosh; Intel Mac OS X 10_15_6) AppleWebKit/537.36 (KHTML, like Gecko) Chrome/105.0.0.0 Safari/537.36","Macintosh","Chrome","105.0.0.0","OS X","10_15_6","[0]","","40","3",""
"3550","You see how a woman is paying with a debit card <br> T&uacute ves como una mujer est&aacute pagando con una tarjeta de d&eacutebito","{""Q0"":4}","trial","94","survey-likert","20","218249","0.0-5.0-0.8","45","1","2022-11-29 21:25:10","2df368f4e41f066fd1c82c297b4a1108","201.141.108.50","Mozilla/5.0 (Macintosh; Intel Mac OS X 10_15_6) AppleWebKit/537.36 (KHTML, like Gecko) Chrome/105.0.0.0 Safari/537.36","Macintosh","Chrome","105.0.0.0","OS X","10_15_6","[0]","","64","4",""
"3458","You see how an old man is hammering a nail <br> T&uacute ves como un hombre anciano est&aacute martillando un clavo","{""Q0"":4}","trial","94","survey-likert","21","221712","0.0-5.0-0.9","45","1","2022-11-29 21:25:10","2df368f4e41f066fd1c82c297b4a1108","201.141.108.50","Mozilla/5.0 (Macintosh; Intel Mac OS X 10_15_6) AppleWebKit/537.36 (KHTML, like Gecko) Chrome/105.0.0.0 Safari/537.36","Macintosh","Chrome","105.0.0.0","OS X","10_15_6","[0]","","29","4",""
"39123","You drop a bowling ball on a paper cup <br> T&uacute tiras una bola de boliche a un vaso de papel","{""Q0"":3}","trial","94","survey-likert","22","260841","0.0-5.0-0.10","45","1","2022-11-29 21:25:10","2df368f4e41f066fd1c82c297b4a1108","201.141.108.50","Mozilla/5.0 (Macintosh; Intel Mac OS X 10_15_6) AppleWebKit/537.36 (KHTML, like Gecko) Chrome/105.0.0.0 Safari/537.36","Macintosh","Chrome","105.0.0.0","OS X","10_15_6","[0]","","24","3",""
"5240","You drop a bowling ball on a hat <br> T&uacute tiras una bola de boliche a una gorra","{""Q0"":3}","trial","94","survey-likert","23","266085","0.0-5.0-0.11","45","1","2022-11-29 21:25:10","2df368f4e41f066fd1c82c297b4a1108","201.141.108.50","Mozilla/5.0 (Macintosh; Intel Mac OS X 10_15_6) AppleWebKit/537.36 (KHTML, like Gecko) Chrome/105.0.0.0 Safari/537.36","Macintosh","Chrome","105.0.0.0","OS X","10_15_6","[0]","","10","3",""
"4532","You drop a bowling ball on glasses <br> T&uacute tiras una bola de boliche a unas gafas","{""Q0"":3}","trial","94","survey-likert","24","270621","0.0-5.0-0.12","45","1","2022-11-29 21:25:10","2df368f4e41f066fd1c82c297b4a1108","201.141.108.50","Mozilla/5.0 (Macintosh; Intel Mac OS X 10_15_6) AppleWebKit/537.36 (KHTML, like Gecko) Chrome/105.0.0.0 Safari/537.36","Macintosh","Chrome","105.0.0.0","OS X","10_15_6","[0]","","9","3",""
"3954","You drop a bowling ball on a strawberry <br> T&uacute tiras una bola de boliche a una fresa","{""Q0"":3}","trial","94","survey-likert","25","274580","0.0-5.0-0.13","45","1","2022-11-29 21:25:10","2df368f4e41f066fd1c82c297b4a1108","201.141.108.50","Mozilla/5.0 (Macintosh; Intel Mac OS X 10_15_6) AppleWebKit/537.36 (KHTML, like Gecko) Chrome/105.0.0.0 Safari/537.36","Macintosh","Chrome","105.0.0.0","OS X","10_15_6","[0]","","20","3",""
"4107","You see how an elephant is eating a watermelon <br> T&uacute ves como un elefante est&aacute comiendo una sand&iacutea","{""Q0"":4}","trial","94","survey-likert","26","278691","0.0-5.0-0.14","45","1","2022-11-29 21:25:10","2df368f4e41f066fd1c82c297b4a1108","201.141.108.50","Mozilla/5.0 (Macintosh; Intel Mac OS X 10_15_6) AppleWebKit/537.36 (KHTML, like Gecko) Chrome/105.0.0.0 Safari/537.36","Macintosh","Chrome","105.0.0.0","OS X","10_15_6","[0]","","31","4",""
"2959","You see how a cook is taking a knife <br> T&uacute ves como un cocinero est&aacute agarrando un cuchillo","{""Q0"":4}","trial","94","survey-likert","27","281654","0.0-5.0-0.15","45","1","2022-11-29 21:25:10","2df368f4e41f066fd1c82c297b4a1108","201.141.108.50","Mozilla/5.0 (Macintosh; Intel Mac OS X 10_15_6) AppleWebKit/537.36 (KHTML, like Gecko) Chrome/105.0.0.0 Safari/537.36","Macintosh","Chrome","105.0.0.0","OS X","10_15_6","[0]","","71","4",""
"4307","You drop a bowling ball on a porcelain figure <br> T&uacute tiras una bola de boliche a una figura de porcelana","{""Q0"":4}","trial","94","survey-likert","28","285966","0.0-5.0-0.16","45","1","2022-11-29 21:25:10","2df368f4e41f066fd1c82c297b4a1108","201.141.108.50","Mozilla/5.0 (Macintosh; Intel Mac OS X 10_15_6) AppleWebKit/537.36 (KHTML, like Gecko) Chrome/105.0.0.0 Safari/537.36","Macintosh","Chrome","105.0.0.0","OS X","10_15_6","[0]","","1","4",""
"5092","You drop a towel on the TV <br> T&uacute tiras una toalla a la televisi&oacuten","{""Q0"":4}","trial","94","survey-likert","29","291062","0.0-5.0-0.17","45","1","2022-11-29 21:25:10","2df368f4e41f066fd1c82c297b4a1108","201.141.108.50","Mozilla/5.0 (Macintosh; Intel Mac OS X 10_15_6) AppleWebKit/537.36 (KHTML, like Gecko) Chrome/105.0.0.0 Safari/537.36","Macintosh","Chrome","105.0.0.0","OS X","10_15_6","[0]","","53","4",""
"4092","You see how a musician is playing a guitar <br> T&uacute ves como un m&uacutesico est&aacute tocando la guitarra","{""Q0"":4}","trial","94","survey-likert","30","295159","0.0-5.0-0.18","45","1","2022-11-29 21:25:10","2df368f4e41f066fd1c82c297b4a1108","201.141.108.50","Mozilla/5.0 (Macintosh; Intel Mac OS X 10_15_6) AppleWebKit/537.36 (KHTML, like Gecko) Chrome/105.0.0.0 Safari/537.36","Macintosh","Chrome","105.0.0.0","OS X","10_15_6","[0]","","27","4",""
"3599","You see how a giraffe is playing with a zebra <br> T&uacute ves como una jirafa est&aacute jugando con una cebra","{""Q0"":4}","trial","94","survey-likert","31","298762","0.0-5.0-0.19","45","1","2022-11-29 21:25:10","2df368f4e41f066fd1c82c297b4a1108","201.141.108.50","Mozilla/5.0 (Macintosh; Intel Mac OS X 10_15_6) AppleWebKit/537.36 (KHTML, like Gecko) Chrome/105.0.0.0 Safari/537.36","Macintosh","Chrome","105.0.0.0","OS X","10_15_6","[0]","","65","4",""
"4539","You drop a bowling ball on a piece of cake <br> T&uacute tiras una bola de boliche a un trozo de pastel","{""Q0"":3}","trial","94","survey-likert","32","303306","0.0-5.0-0.20","45","1","2022-11-29 21:25:10","2df368f4e41f066fd1c82c297b4a1108","201.141.108.50","Mozilla/5.0 (Macintosh; Intel Mac OS X 10_15_6) AppleWebKit/537.36 (KHTML, like Gecko) Chrome/105.0.0.0 Safari/537.36","Macintosh","Chrome","105.0.0.0","OS X","10_15_6","[0]","","2","3",""
"5377","You drop a bowling ball on a light bulb <br> T&uacute tiras una bola de boliche a una bombilla","{""Q0"":3}","trial","94","survey-likert","33","308688","0.0-5.0-0.21","45","1","2022-11-29 21:25:10","2df368f4e41f066fd1c82c297b4a1108","201.141.108.50","Mozilla/5.0 (Macintosh; Intel Mac OS X 10_15_6) AppleWebKit/537.36 (KHTML, like Gecko) Chrome/105.0.0.0 Safari/537.36","Macintosh","Chrome","105.0.0.0","OS X","10_15_6","[0]","","14","3",""
"3656","You see how a student is writing on a board <br> T&uacute ves como un estudiante est&aacute escribiendo en la pizarra","{""Q0"":4}","trial","94","survey-likert","34","312348","0.0-5.0-0.22","45","1","2022-11-29 21:25:10","2df368f4e41f066fd1c82c297b4a1108","201.141.108.50","Mozilla/5.0 (Macintosh; Intel Mac OS X 10_15_6) AppleWebKit/537.36 (KHTML, like Gecko) Chrome/105.0.0.0 Safari/537.36","Macintosh","Chrome","105.0.0.0","OS X","10_15_6","[0]","","50","4",""
"4228","You drop a toothbrush on the sponge <br> T&uacute tiras un cepillo de dientes en la esponja","{""Q0"":4}","trial","94","survey-likert","35","316580","0.0-5.0-0.23","45","1","2022-11-29 21:25:10","2df368f4e41f066fd1c82c297b4a1108","201.141.108.50","Mozilla/5.0 (Macintosh; Intel Mac OS X 10_15_6) AppleWebKit/537.36 (KHTML, like Gecko) Chrome/105.0.0.0 Safari/537.36","Macintosh","Chrome","105.0.0.0","OS X","10_15_6","[0]","","25","4",""
"3362","You drop a bowling ball on a donut <br> T&uacute tiras una bola de boliche a una rosquilla","{""Q0"":3}","trial","94","survey-likert","36","319948","0.0-5.0-0.24","45","1","2022-11-29 21:25:10","2df368f4e41f066fd1c82c297b4a1108","201.141.108.50","Mozilla/5.0 (Macintosh; Intel Mac OS X 10_15_6) AppleWebKit/537.36 (KHTML, like Gecko) Chrome/105.0.0.0 Safari/537.36","Macintosh","Chrome","105.0.0.0","OS X","10_15_6","[0]","","17","3",""
"4171","You drop a bowling ball on a cracker <br> T&uacute tiras una bola de boliche a una galleta","{""Q0"":3}","trial","94","survey-likert","37","324123","0.0-5.0-0.25","45","1","2022-11-29 21:25:10","2df368f4e41f066fd1c82c297b4a1108","201.141.108.50","Mozilla/5.0 (Macintosh; Intel Mac OS X 10_15_6) AppleWebKit/537.36 (KHTML, like Gecko) Chrome/105.0.0.0 Safari/537.36","Macintosh","Chrome","105.0.0.0","OS X","10_15_6","[0]","","4","3",""
"5448","You see how a teenage girl is playing the piano <br> T&uacute ves como una ni&ntildea adolescente est&aacute tocando el piano","{""Q0"":4}","trial","94","survey-likert","38","329576","0.0-5.0-0.26","45","1","2022-11-29 21:25:10","2df368f4e41f066fd1c82c297b4a1108","201.141.108.50","Mozilla/5.0 (Macintosh; Intel Mac OS X 10_15_6) AppleWebKit/537.36 (KHTML, like Gecko) Chrome/105.0.0.0 Safari/537.36","Macintosh","Chrome","105.0.0.0","OS X","10_15_6","[0]","","54","4",""
"4576","You drop a bowling ball on a blackberry <br> T&uacute tiras una bola de boliche a una mora","{""Q0"":3}","trial","94","survey-likert","39","334157","0.0-5.0-0.27","45","1","2022-11-29 21:25:10","2df368f4e41f066fd1c82c297b4a1108","201.141.108.50","Mozilla/5.0 (Macintosh; Intel Mac OS X 10_15_6) AppleWebKit/537.36 (KHTML, like Gecko) Chrome/105.0.0.0 Safari/537.36","Macintosh","Chrome","105.0.0.0","OS X","10_15_6","[0]","","8","3",""
"3627","You see how a photographer is taking a photo of a lion <br> T&uacute ves como un fot&oacutegrafo est&aacute tomando una foto de un le&oacuten","{""Q0"":3}","trial","94","survey-likert","40","337789","0.0-5.0-0.28","45","1","2022-11-29 21:25:10","2df368f4e41f066fd1c82c297b4a1108","201.141.108.50","Mozilla/5.0 (Macintosh; Intel Mac OS X 10_15_6) AppleWebKit/537.36 (KHTML, like Gecko) Chrome/105.0.0.0 Safari/537.36","Macintosh","Chrome","105.0.0.0","OS X","10_15_6","[0]","","72","3",""
"5207","You drop a watch on the laptop <br> T&uacute tiras un reloj al port&aacutetil","{""Q0"":4}","trial","94","survey-likert","41","343001","0.0-5.0-0.29","45","1","2022-11-29 21:25:10","2df368f4e41f066fd1c82c297b4a1108","201.141.108.50","Mozilla/5.0 (Macintosh; Intel Mac OS X 10_15_6) AppleWebKit/537.36 (KHTML, like Gecko) Chrome/105.0.0.0 Safari/537.36","Macintosh","Chrome","105.0.0.0","OS X","10_15_6","[0]","","37","4",""
"5366","You see how a postman is driving a car <br> T&uacute ves como un cartero est&aacute conduciendo un coche","{""Q0"":4}","trial","94","survey-likert","42","348372","0.0-5.0-0.30","45","1","2022-11-29 21:25:10","2df368f4e41f066fd1c82c297b4a1108","201.141.108.50","Mozilla/5.0 (Macintosh; Intel Mac OS X 10_15_6) AppleWebKit/537.36 (KHTML, like Gecko) Chrome/105.0.0.0 Safari/537.36","Macintosh","Chrome","105.0.0.0","OS X","10_15_6","[0]","","32","4",""
"4171","You see how a police officer is talking on the phone <br> T&uacute ves como un polic&iacutea est&aacute hablando por el tel&eacutefono","{""Q0"":4}","trial","94","survey-likert","43","352547","0.0-5.0-0.31","45","1","2022-11-29 21:25:10","2df368f4e41f066fd1c82c297b4a1108","201.141.108.50","Mozilla/5.0 (Macintosh; Intel Mac OS X 10_15_6) AppleWebKit/537.36 (KHTML, like Gecko) Chrome/105.0.0.0 Safari/537.36","Macintosh","Chrome","105.0.0.0","OS X","10_15_6","[0]","","62","4",""
"5427","You see how a president is writing in the notebook <br> T&uacute ves como un presidente est&aacute escribiendo en la libreta","{""Q0"":4}","trial","94","survey-likert","44","357980","0.0-5.0-0.32","45","1","2022-11-29 21:25:10","2df368f4e41f066fd1c82c297b4a1108","201.141.108.50","Mozilla/5.0 (Macintosh; Intel Mac OS X 10_15_6) AppleWebKit/537.36 (KHTML, like Gecko) Chrome/105.0.0.0 Safari/537.36","Macintosh","Chrome","105.0.0.0","OS X","10_15_6","[0]","","63","4",""
"3451","You drop a keyboard on the bed <br> T&uacute tiras un teclado a la cama","{""Q0"":4}","trial","94","survey-likert","45","361435","0.0-5.0-0.33","45","1","2022-11-29 21:25:10","2df368f4e41f066fd1c82c297b4a1108","201.141.108.50","Mozilla/5.0 (Macintosh; Intel Mac OS X 10_15_6) AppleWebKit/537.36 (KHTML, like Gecko) Chrome/105.0.0.0 Safari/537.36","Macintosh","Chrome","105.0.0.0","OS X","10_15_6","[0]","","36","4",""
"3747","You drop a bowling ball on a piece of sushi <br> T&uacute tiras una bola de boliche a un pedazo de sushi","{""Q0"":4}","trial","94","survey-likert","46","365186","0.0-5.0-0.34","45","1","2022-11-29 21:25:10","2df368f4e41f066fd1c82c297b4a1108","201.141.108.50","Mozilla/5.0 (Macintosh; Intel Mac OS X 10_15_6) AppleWebKit/537.36 (KHTML, like Gecko) Chrome/105.0.0.0 Safari/537.36","Macintosh","Chrome","105.0.0.0","OS X","10_15_6","[0]","","21","4",""
"6644","You drop a cabbage on the table <br> T&uacute tiras una col a la mesa","{""Q0"":2}","trial","94","survey-likert","47","371835","0.0-5.0-0.35","45","1","2022-11-29 21:25:10","2df368f4e41f066fd1c82c297b4a1108","201.141.108.50","Mozilla/5.0 (Macintosh; Intel Mac OS X 10_15_6) AppleWebKit/537.36 (KHTML, like Gecko) Chrome/105.0.0.0 Safari/537.36","Macintosh","Chrome","105.0.0.0","OS X","10_15_6","[0]","","35","2",""
"3929","You see how a puppy is playing with a ball <br> T&uacute ves como un cachorro est&aacute jugando con una pelota","{""Q0"":4}","trial","94","survey-likert","48","375769","0.0-5.0-0.36","45","1","2022-11-29 21:25:10","2df368f4e41f066fd1c82c297b4a1108","201.141.108.50","Mozilla/5.0 (Macintosh; Intel Mac OS X 10_15_6) AppleWebKit/537.36 (KHTML, like Gecko) Chrome/105.0.0.0 Safari/537.36","Macintosh","Chrome","105.0.0.0","OS X","10_15_6","[0]","","34","4",""
"4002","You see how an owl is sitting on the branch <br> T&uacute ves como un b&uacuteho est&aacute reposando en una rama","{""Q0"":4}","trial","94","survey-likert","49","379776","0.0-5.0-0.37","45","1","2022-11-29 21:25:10","2df368f4e41f066fd1c82c297b4a1108","201.141.108.50","Mozilla/5.0 (Macintosh; Intel Mac OS X 10_15_6) AppleWebKit/537.36 (KHTML, like Gecko) Chrome/105.0.0.0 Safari/537.36","Macintosh","Chrome","105.0.0.0","OS X","10_15_6","[0]","","69","4",""
"3411","You see how a thief is stealing a wallet <br> T&uacute ves como un ladr&oacuten est&aacute robando una billetera","{""Q0"":4}","trial","94","survey-likert","50","383191","0.0-5.0-0.38","45","1","2022-11-29 21:25:10","2df368f4e41f066fd1c82c297b4a1108","201.141.108.50","Mozilla/5.0 (Macintosh; Intel Mac OS X 10_15_6) AppleWebKit/537.36 (KHTML, like Gecko) Chrome/105.0.0.0 Safari/537.36","Macintosh","Chrome","105.0.0.0","OS X","10_15_6","[0]","","68","4",""
"4763","You drop a bowling ball on an iPAD <br> T&uacute tiras una bola de boliche a un iPad","{""Q0"":4}","trial","94","survey-likert","51","387960","0.0-5.0-0.39","45","1","2022-11-29 21:25:10","2df368f4e41f066fd1c82c297b4a1108","201.141.108.50","Mozilla/5.0 (Macintosh; Intel Mac OS X 10_15_6) AppleWebKit/537.36 (KHTML, like Gecko) Chrome/105.0.0.0 Safari/537.36","Macintosh","Chrome","105.0.0.0","OS X","10_15_6","[0]","","12","4",""
"3330","You drop a bowling ball on a mirror <br> T&uacute tiras una bola de boliche a un espejo","{""Q0"":4}","trial","94","survey-likert","52","391294","0.0-5.0-0.40","45","1","2022-11-29 21:25:10","2df368f4e41f066fd1c82c297b4a1108","201.141.108.50","Mozilla/5.0 (Macintosh; Intel Mac OS X 10_15_6) AppleWebKit/537.36 (KHTML, like Gecko) Chrome/105.0.0.0 Safari/537.36","Macintosh","Chrome","105.0.0.0","OS X","10_15_6","[0]","","15","4",""
"4587","You drop a bowling ball on an egg flan <br> T&uacute tiras una bola de boliche a un flan","{""Q0"":4}","trial","94","survey-likert","53","395886","0.0-5.0-0.41","45","1","2022-11-29 21:25:10","2df368f4e41f066fd1c82c297b4a1108","201.141.108.50","Mozilla/5.0 (Macintosh; Intel Mac OS X 10_15_6) AppleWebKit/537.36 (KHTML, like Gecko) Chrome/105.0.0.0 Safari/537.36","Macintosh","Chrome","105.0.0.0","OS X","10_15_6","[0]","","7","4",""
"4394","You drop a fork on the plate <br> T&uacute tiras un tenedor al plato","{""Q0"":4}","trial","94","survey-likert","54","400286","0.0-5.0-0.42","45","1","2022-11-29 21:25:10","2df368f4e41f066fd1c82c297b4a1108","201.141.108.50","Mozilla/5.0 (Macintosh; Intel Mac OS X 10_15_6) AppleWebKit/537.36 (KHTML, like Gecko) Chrome/105.0.0.0 Safari/537.36","Macintosh","Chrome","105.0.0.0","OS X","10_15_6","[0]","","26","4",""
"5632","You drop a bowling ball on a chocolate muffin <br> T&uacute tiras una bola de boliche a una magdalena de chocolate","{""Q0"":3}","trial","94","survey-likert","55","405923","0.0-5.0-0.43","45","1","2022-11-29 21:25:10","2df368f4e41f066fd1c82c297b4a1108","201.141.108.50","Mozilla/5.0 (Macintosh; Intel Mac OS X 10_15_6) AppleWebKit/537.36 (KHTML, like Gecko) Chrome/105.0.0.0 Safari/537.36","Macintosh","Chrome","105.0.0.0","OS X","10_15_6","[0]","","16","3",""
"3956","You drop a cushion on the magazine <br> T&uacute tiras un coj&iacuten a la revista","{""Q0"":4}","trial","94","survey-likert","56","409883","0.0-5.0-0.44","45","1","2022-11-29 21:25:10","2df368f4e41f066fd1c82c297b4a1108","201.141.108.50","Mozilla/5.0 (Macintosh; Intel Mac OS X 10_15_6) AppleWebKit/537.36 (KHTML, like Gecko) Chrome/105.0.0.0 Safari/537.36","Macintosh","Chrome","105.0.0.0","OS X","10_15_6","[0]","","38","4",""
"4326","You see how a pilot is reading a book <br> T&uacute ves como un piloto est&aacute leyendo un libro","{""Q0"":4}","trial","94","survey-likert","57","414214","0.0-5.0-0.45","45","1","2022-11-29 21:25:10","2df368f4e41f066fd1c82c297b4a1108","201.141.108.50","Mozilla/5.0 (Macintosh; Intel Mac OS X 10_15_6) AppleWebKit/537.36 (KHTML, like Gecko) Chrome/105.0.0.0 Safari/537.36","Macintosh","Chrome","105.0.0.0","OS X","10_15_6","[0]","","61","4",""
"4187","You see how a man is playing with a cat <br> T&uacute ves como un hombre est&aacute jugando con un gato","{""Q0"":4}","trial","94","survey-likert","58","418406","0.0-5.0-0.46","45","1","2022-11-29 21:25:10","2df368f4e41f066fd1c82c297b4a1108","201.141.108.50","Mozilla/5.0 (Macintosh; Intel Mac OS X 10_15_6) AppleWebKit/537.36 (KHTML, like Gecko) Chrome/105.0.0.0 Safari/537.36","Macintosh","Chrome","105.0.0.0","OS X","10_15_6","[0]","","67","4",""
"2562","You drop a bowling ball on a rice cake <br> T&uacute tiras una bola de boliche a una tortita de arroz","{""Q0"":4}","trial","94","survey-likert","59","420973","0.0-5.0-0.47","45","1","2022-11-29 21:25:10","2df368f4e41f066fd1c82c297b4a1108","201.141.108.50","Mozilla/5.0 (Macintosh; Intel Mac OS X 10_15_6) AppleWebKit/537.36 (KHTML, like Gecko) Chrome/105.0.0.0 Safari/537.36","Macintosh","Chrome","105.0.0.0","OS X","10_15_6","[0]","","18","4",""
"2741","You see how a butterfly is sitting on a flower <br> T&uacute ves como una mariposa est&aacute reposando en una flor","{""Q0"":4}","trial","94","survey-likert","60","423719","0.0-5.0-0.48","45","1","2022-11-29 21:25:10","2df368f4e41f066fd1c82c297b4a1108","201.141.108.50","Mozilla/5.0 (Macintosh; Intel Mac OS X 10_15_6) AppleWebKit/537.36 (KHTML, like Gecko) Chrome/105.0.0.0 Safari/537.36","Macintosh","Chrome","105.0.0.0","OS X","10_15_6","[0]","","59","4",""
"4131","You drop a needle on the mouse pad <br> T&uacute tiras una aguja a la alfombrilla para el rat&oacuten","{""Q0"":4}","trial","94","survey-likert","61","427854","0.0-5.0-0.49","45","1","2022-11-29 21:25:10","2df368f4e41f066fd1c82c297b4a1108","201.141.108.50","Mozilla/5.0 (Macintosh; Intel Mac OS X 10_15_6) AppleWebKit/537.36 (KHTML, like Gecko) Chrome/105.0.0.0 Safari/537.36","Macintosh","Chrome","105.0.0.0","OS X","10_15_6","[0]","","42","4",""
"3200","You see how a panda is resting on a tree <br> T&uacute ves como un panda est&aacute descansando en un &aacuterbol","{""Q0"":4}","trial","94","survey-likert","62","431061","0.0-5.0-0.50","45","1","2022-11-29 21:25:10","2df368f4e41f066fd1c82c297b4a1108","201.141.108.50","Mozilla/5.0 (Macintosh; Intel Mac OS X 10_15_6) AppleWebKit/537.36 (KHTML, like Gecko) Chrome/105.0.0.0 Safari/537.36","Macintosh","Chrome","105.0.0.0","OS X","10_15_6","[0]","","57","4",""
"5020","You see how a boy is peeling a banana <br> T&uacute ves como un ni&ntildeo est&aacute pelando una banana","{""Q0"":4}","trial","94","survey-likert","63","436085","0.0-5.0-0.51","45","1","2022-11-29 21:25:10","2df368f4e41f066fd1c82c297b4a1108","201.141.108.50","Mozilla/5.0 (Macintosh; Intel Mac OS X 10_15_6) AppleWebKit/537.36 (KHTML, like Gecko) Chrome/105.0.0.0 Safari/537.36","Macintosh","Chrome","105.0.0.0","OS X","10_15_6","[0]","","30","4",""
"7921","You drop a bowling ball on a chocolate ice-cream <br> T&uacute tiras una bola de boliche a un helado de chocolate","{""Q0"":3}","trial","94","survey-likert","64","444011","0.0-5.0-0.52","45","1","2022-11-29 21:25:10","2df368f4e41f066fd1c82c297b4a1108","201.141.108.50","Mozilla/5.0 (Macintosh; Intel Mac OS X 10_15_6) AppleWebKit/537.36 (KHTML, like Gecko) Chrome/105.0.0.0 Safari/537.36","Macintosh","Chrome","105.0.0.0","OS X","10_15_6","[0]","","11","3",""
"2841","You see how a doctor is taking a stethoscope <br> T&uacute ves como un doctor est&aacute agarrando un estetoscopio","{""Q0"":4}","trial","94","survey-likert","65","446857","0.0-5.0-0.53","45","1","2022-11-29 21:25:10","2df368f4e41f066fd1c82c297b4a1108","201.141.108.50","Mozilla/5.0 (Macintosh; Intel Mac OS X 10_15_6) AppleWebKit/537.36 (KHTML, like Gecko) Chrome/105.0.0.0 Safari/537.36","Macintosh","Chrome","105.0.0.0","OS X","10_15_6","[0]","","49","4",""
"2884","You see how a man is boiling potatoes <br> T&uacute ves a un hombre est&aacute hirviendo papas","{""Q0"":4}","trial","94","survey-likert","66","449747","0.0-5.0-0.54","45","1","2022-11-29 21:25:10","2df368f4e41f066fd1c82c297b4a1108","201.141.108.50","Mozilla/5.0 (Macintosh; Intel Mac OS X 10_15_6) AppleWebKit/537.36 (KHTML, like Gecko) Chrome/105.0.0.0 Safari/537.36","Macintosh","Chrome","105.0.0.0","OS X","10_15_6","[0]","","46","4",""
"2633","You see how a zebra is playing with a horse <br> T&uacute ves como una cebra est&aacute jugando con un caballo","{""Q0"":4}","trial","94","survey-likert","67","452385","0.0-5.0-0.55","45","1","2022-11-29 21:25:10","2df368f4e41f066fd1c82c297b4a1108","201.141.108.50","Mozilla/5.0 (Macintosh; Intel Mac OS X 10_15_6) AppleWebKit/537.36 (KHTML, like Gecko) Chrome/105.0.0.0 Safari/537.36","Macintosh","Chrome","105.0.0.0","OS X","10_15_6","[0]","","66","4",""
"2561","You see how a mouse is eating cheese <br> T&uacute ves como el rat&oacuten est&aacute comiendo queso","{""Q0"":4}","trial","94","survey-likert","68","454951","0.0-5.0-0.56","45","1","2022-11-29 21:25:10","2df368f4e41f066fd1c82c297b4a1108","201.141.108.50","Mozilla/5.0 (Macintosh; Intel Mac OS X 10_15_6) AppleWebKit/537.36 (KHTML, like Gecko) Chrome/105.0.0.0 Safari/537.36","Macintosh","Chrome","105.0.0.0","OS X","10_15_6","[0]","","56","4",""
"13718","You see how a kitten is playing in the sandbox <br> T&uacute ves como un gatito est&aacute jugando en la caja de arena","{""Q0"":4}","trial","94","survey-likert","69","468675","0.0-5.0-0.57","45","1","2022-11-29 21:25:10","2df368f4e41f066fd1c82c297b4a1108","201.141.108.50","Mozilla/5.0 (Macintosh; Intel Mac OS X 10_15_6) AppleWebKit/537.36 (KHTML, like Gecko) Chrome/105.0.0.0 Safari/537.36","Macintosh","Chrome","105.0.0.0","OS X","10_15_6","[0]","","52","4",""
"6380","You see how a cat is drinking water from a bowl <br> T&uacute ves como un gato est&aacute bebiendo agua de un cuenco","{""Q0"":3}","trial","94","survey-likert","70","475060","0.0-5.0-0.58","45","1","2022-11-29 21:25:10","2df368f4e41f066fd1c82c297b4a1108","201.141.108.50","Mozilla/5.0 (Macintosh; Intel Mac OS X 10_15_6) AppleWebKit/537.36 (KHTML, like Gecko) Chrome/105.0.0.0 Safari/537.36","Macintosh","Chrome","105.0.0.0","OS X","10_15_6","[0]","","28","3",""
"5939","You see how a parrot is eating an apple <br> T&uacute ves como un loro est&aacute comiendo una manzana","{""Q0"":4}","trial","94","survey-likert","71","481004","0.0-5.0-0.59","45","1","2022-11-29 21:25:10","2df368f4e41f066fd1c82c297b4a1108","201.141.108.50","Mozilla/5.0 (Macintosh; Intel Mac OS X 10_15_6) AppleWebKit/537.36 (KHTML, like Gecko) Chrome/105.0.0.0 Safari/537.36","Macintosh","Chrome","105.0.0.0","OS X","10_15_6","[0]","","58","4",""
"3361","You see how a dentist is drinking a can of cola <br> T&uacute ves como un dentista est&aacute bebiendo una lata de cola","{""Q0"":4}","trial","94","survey-likert","72","484371","0.0-5.0-0.60","45","1","2022-11-29 21:25:10","2df368f4e41f066fd1c82c297b4a1108","201.141.108.50","Mozilla/5.0 (Macintosh; Intel Mac OS X 10_15_6) AppleWebKit/537.36 (KHTML, like Gecko) Chrome/105.0.0.0 Safari/537.36","Macintosh","Chrome","105.0.0.0","OS X","10_15_6","[0]","","47","4",""
"3185","You see how a woman is taking money out of a wallet <br> T&uacute ves como una mujer est&aacute sacando dinero de su billetera","{""Q0"":4}","trial","94","survey-likert","73","487563","0.0-5.0-0.61","45","1","2022-11-29 21:25:10","2df368f4e41f066fd1c82c297b4a1108","201.141.108.50","Mozilla/5.0 (Macintosh; Intel Mac OS X 10_15_6) AppleWebKit/537.36 (KHTML, like Gecko) Chrome/105.0.0.0 Safari/537.36","Macintosh","Chrome","105.0.0.0","OS X","10_15_6","[0]","","44","4",""
"11156","You drop a bowling ball on an empty can of beer <br> T&uacute tiras una bola de boliche a una lata de cerveza vac&iacutea","{""Q0"":4}","trial","94","survey-likert","74","498725","0.0-5.0-0.62","45","1","2022-11-29 21:25:10","2df368f4e41f066fd1c82c297b4a1108","201.141.108.50","Mozilla/5.0 (Macintosh; Intel Mac OS X 10_15_6) AppleWebKit/537.36 (KHTML, like Gecko) Chrome/105.0.0.0 Safari/537.36","Macintosh","Chrome","105.0.0.0","OS X","10_15_6","[0]","","3","4",""
"3452","You drop a bowling ball on a wine glass <br> T&uacute tiras una bola de boliche a una copa de vino","{""Q0"":4}","trial","94","survey-likert","75","502184","0.0-5.0-0.63","45","1","2022-11-29 21:25:10","2df368f4e41f066fd1c82c297b4a1108","201.141.108.50","Mozilla/5.0 (Macintosh; Intel Mac OS X 10_15_6) AppleWebKit/537.36 (KHTML, like Gecko) Chrome/105.0.0.0 Safari/537.36","Macintosh","Chrome","105.0.0.0","OS X","10_15_6","[0]","","5","4",""
"3922","You see how a hairdresser is taking scissors <br> T&uacute ves como una peluquera est&aacute agarrando las tijeras","{""Q0"":4}","trial","94","survey-likert","76","506111","0.0-5.0-0.64","45","1","2022-11-29 21:25:10","2df368f4e41f066fd1c82c297b4a1108","201.141.108.50","Mozilla/5.0 (Macintosh; Intel Mac OS X 10_15_6) AppleWebKit/537.36 (KHTML, like Gecko) Chrome/105.0.0.0 Safari/537.36","Macintosh","Chrome","105.0.0.0","OS X","10_15_6","[0]","","60","4",""
"2976","You see how a donkey is drinking water <br> T&uacute ves como un burro est&aacute bebiendo agua","{""Q0"":4}","trial","94","survey-likert","77","509094","0.0-5.0-0.65","45","1","2022-11-29 21:25:10","2df368f4e41f066fd1c82c297b4a1108","201.141.108.50","Mozilla/5.0 (Macintosh; Intel Mac OS X 10_15_6) AppleWebKit/537.36 (KHTML, like Gecko) Chrome/105.0.0.0 Safari/537.36","Macintosh","Chrome","105.0.0.0","OS X","10_15_6","[0]","","45","4",""
"4146","You drop a thermometer on the box <br> T&uacute tiras un term&oacutemetro a la caja","{""Q0"":4}","trial","94","survey-likert","78","513245","0.0-5.0-0.66","45","1","2022-11-29 21:25:10","2df368f4e41f066fd1c82c297b4a1108","201.141.108.50","Mozilla/5.0 (Macintosh; Intel Mac OS X 10_15_6) AppleWebKit/537.36 (KHTML, like Gecko) Chrome/105.0.0.0 Safari/537.36","Macintosh","Chrome","105.0.0.0","OS X","10_15_6","[0]","","70","4",""
"4451","You drop a bowling ball on an iPhone <br> T&uacute tiras una bola de boliche a un iPhone","{""Q0"":3}","trial","94","survey-likert","79","517702","0.0-5.0-0.67","45","1","2022-11-29 21:25:10","2df368f4e41f066fd1c82c297b4a1108","201.141.108.50","Mozilla/5.0 (Macintosh; Intel Mac OS X 10_15_6) AppleWebKit/537.36 (KHTML, like Gecko) Chrome/105.0.0.0 Safari/537.36","Macintosh","Chrome","105.0.0.0","OS X","10_15_6","[0]","","13","3",""
"4561","You see how a nurse is taking a syringe <br> T&uacute ves como una enfermera est&aacute agarrando una jeringuilla","{""Q0"":3}","trial","94","survey-likert","80","522269","0.0-5.0-0.68","45","1","2022-11-29 21:25:10","2df368f4e41f066fd1c82c297b4a1108","201.141.108.50","Mozilla/5.0 (Macintosh; Intel Mac OS X 10_15_6) AppleWebKit/537.36 (KHTML, like Gecko) Chrome/105.0.0.0 Safari/537.36","Macintosh","Chrome","105.0.0.0","OS X","10_15_6","[0]","","48","3",""
"3060","You drop a bowling ball on a ceramic plate <br> T&uacute tiras una bola de boliche a un plato de cer&aacutemica","{""Q0"":3}","trial","94","survey-likert","81","525335","0.0-5.0-0.69","45","1","2022-11-29 21:25:10","2df368f4e41f066fd1c82c297b4a1108","201.141.108.50","Mozilla/5.0 (Macintosh; Intel Mac OS X 10_15_6) AppleWebKit/537.36 (KHTML, like Gecko) Chrome/105.0.0.0 Safari/537.36","Macintosh","Chrome","105.0.0.0","OS X","10_15_6","[0]","","19","3",""
"3002","You see how a horse is chewing hay <br> T&uacute ves como un caballo est&aacute masticando el heno","{""Q0"":4}","trial","94","survey-likert","82","528343","0.0-5.0-0.70","45","1","2022-11-29 21:25:10","2df368f4e41f066fd1c82c297b4a1108","201.141.108.50","Mozilla/5.0 (Macintosh; Intel Mac OS X 10_15_6) AppleWebKit/537.36 (KHTML, like Gecko) Chrome/105.0.0.0 Safari/537.36","Macintosh","Chrome","105.0.0.0","OS X","10_15_6","[0]","","55","4",""
"5506","You drop a remote on the rug <br> T&uacute tiras un control remoto a la alfombra","{""Q0"":4}","trial","94","survey-likert","83","533855","0.0-5.0-0.71","45","1","2022-11-29 21:25:10","2df368f4e41f066fd1c82c297b4a1108","201.141.108.50","Mozilla/5.0 (Macintosh; Intel Mac OS X 10_15_6) AppleWebKit/537.36 (KHTML, like Gecko) Chrome/105.0.0.0 Safari/537.36","Macintosh","Chrome","105.0.0.0","OS X","10_15_6","[0]","","39","4",""
"2585","
    <p style=""font-size:20px;""> You have completed the experiment portion! </p>
    <p style=""font-size:20px;""> Before you are done, we would like you to answer some basic demographic questions. </p>
    <p style=""font-size:20px;""> Note that your answers to these questions will not affect your compensation/credit. </p>
    <p style=""font-size:20px;""> Click the button below to continue.</p>
    ","0","demo","94","html-button-response","84","536448","0.0-6.0","45","1","2022-11-29 21:25:10","2df368f4e41f066fd1c82c297b4a1108","201.141.108.50","Mozilla/5.0 (Macintosh; Intel Mac OS X 10_15_6) AppleWebKit/537.36 (KHTML, like Gecko) Chrome/105.0.0.0 Safari/537.36","Macintosh","Chrome","105.0.0.0","OS X","10_15_6","","","","",""
"14346","","{""Age"":""24"",""Gender"":""female"",""Education"":""16""}","demo","94","survey-text","85","550800","0.0-7.0-0.0","45","1","2022-11-29 21:25:10","2df368f4e41f066fd1c82c297b4a1108","201.141.108.50","Mozilla/5.0 (Macintosh; Intel Mac OS X 10_15_6) AppleWebKit/537.36 (KHTML, like Gecko) Chrome/105.0.0.0 Safari/537.36","Macintosh","Chrome","105.0.0.0","OS X","10_15_6","","","","",""
"8519","","{""Race"":[""Other""]}","demo","94","survey-multi-select","86","559328","0.0-7.0-1.0","45","1","2022-11-29 21:25:10","2df368f4e41f066fd1c82c297b4a1108","201.141.108.50","Mozilla/5.0 (Macintosh; Intel Mac OS X 10_15_6) AppleWebKit/537.36 (KHTML, like Gecko) Chrome/105.0.0.0 Safari/537.36","Macintosh","Chrome","105.0.0.0","OS X","10_15_6","[0]","","","",""
"5549","","{""Latino"":""Yes"",""Alert"":""Evening""}","demo","94","survey-multi-choice","87","564886","0.0-7.0-2.0","45","1","2022-11-29 21:25:10","2df368f4e41f066fd1c82c297b4a1108","201.141.108.50","Mozilla/5.0 (Macintosh; Intel Mac OS X 10_15_6) AppleWebKit/537.36 (KHTML, like Gecko) Chrome/105.0.0.0 Safari/537.36","Macintosh","Chrome","105.0.0.0","OS X","10_15_6","[0,1]","","","",""
"5408","","{""Q0"":""no""}","demo","94","survey-text","88","570302","0.0-7.0-3.0","45","1","2022-11-29 21:25:10","2df368f4e41f066fd1c82c297b4a1108","201.141.108.50","Mozilla/5.0 (Macintosh; Intel Mac OS X 10_15_6) AppleWebKit/537.36 (KHTML, like Gecko) Chrome/105.0.0.0 Safari/537.36","Macintosh","Chrome","105.0.0.0","OS X","10_15_6","","","","",""
"7045","<p>Thank you for participating! </p><strong>Your completion code is: CXEJB7NH. Please copy-paste this code and submit it on Prolific.</strong><p>Click <a href=""https://drive.google.com/file/d/1c70cdHFlc0AaR6RujLWLJwWkv1RbHQJY/view?usp=sharing"" target=""_blank"" rel=""noopener noreferrer"">here</a> to access the debriefing form and know more about our research. <p> Please click the button below to finish the experiment and save your data.</p> <p> IMPORTANT: Please <strong>do not leave this page </strong> without clicking the button below.</p> <p> You may close the tab/window after you click the button below.","0","","","html-button-response","89","577351","0.0-8.0","45","1","2022-11-29 21:25:10","2df368f4e41f066fd1c82c297b4a1108","201.141.108.50","Mozilla/5.0 (Macintosh; Intel Mac OS X 10_15_6) AppleWebKit/537.36 (KHTML, like Gecko) Chrome/105.0.0.0 Safari/537.36","Macintosh","Chrome","105.0.0.0","OS X","10_15_6","","","","",""
