"rt","stimulus","response","typeoftrial","subject","trial_type","trial_index","time_elapsed","internal_node_id","run_id","condition","recorded_at","source_code_version","ip","user_agent","device","browser","browser_version","platform","platform_version","question_order","practice_rating","sentence_num","rating","Experiment"
"9854","
        <p style=""font-size:20px;""> Welcome! Thank you for your interest in our study. </p>
        <p style=""font-size:20px;""> This study is being conducted by researchers at Bowdoin College.</p>
        <p style=""font-size:20px;""> In this experiment, you will be asked to rate the accuracy of English and Spanish translations.</p>
        <p style=""font-size:20px;""> The entire experiment should not last more than 20 minutes. You will be paid $3 USD for your participation. </p>
        <p style=""font-size:20px;""> Please click <a href = ""https://drive.google.com/file/d/1L92a02eEKCpaAEipmqDcBCDR7rsarqFE/view?usp=sharing"" target = ""_blank"">here</a> to read the full consent form. </p>
        <p style=""font-size:20px;""> If you agree to participate, please click the button below to continue to experiment instructions.</p>
        ","0","consent","27366","html-button-response","0","9856","0.0-0.0","28","1","2022-11-29 21:24:54","2df368f4e41f066fd1c82c297b4a1108","190.45.133.37","Mozilla/5.0 (Windows NT 10.0; Win64; x64) AppleWebKit/537.36 (KHTML, like Gecko) Chrome/107.0.0.0 Safari/537.36","WebKit","Chrome","107.0.0.0","Windows","10.0","","","","",""
"6359","","{""ID"":""5afe71f12406810001d654cd""}","ID","27366","survey-text","1","16222","0.0-1.0","28","1","2022-11-29 21:24:54","2df368f4e41f066fd1c82c297b4a1108","190.45.133.37","Mozilla/5.0 (Windows NT 10.0; Win64; x64) AppleWebKit/537.36 (KHTML, like Gecko) Chrome/107.0.0.0 Safari/537.36","WebKit","Chrome","107.0.0.0","Windows","10.0","","","","",""
"12839","
        <p style=""font-size:20px;""> You are about to begin the practice test. </p>
        <p style=""font-size:20px;""> On each trial, you will see a sentence in English and its corresponding Spanish translation. </p>
        <p style=""font-size:20px;""> You will rate the accuracy of the translation on a scale from ""Not at all accurate"" to ""Very accurate."" </p>
        <p style=""font-size:20px;""> If you rate the translation as ""Somewhat innaccurate"" or ""Not at all accurate,"" you will be asked to provide your own translation or a reason why the translation is inaccurate. </p>
        <p style=""font-size:20px;""> Click the button below to continue to the practice session.</p>","0","instructions","27366","html-button-response","2","29062","0.0-2.0","28","1","2022-11-29 21:24:54","2df368f4e41f066fd1c82c297b4a1108","190.45.133.37","Mozilla/5.0 (Windows NT 10.0; Win64; x64) AppleWebKit/537.36 (KHTML, like Gecko) Chrome/107.0.0.0 Safari/537.36","WebKit","Chrome","107.0.0.0","Windows","10.0","","","","",""
"23046","You drop a rock on a phone <br> T&uacute tiras una piedra a un tel&eacutefono","{""Q0"":3}","practice","27366","survey-likert","3","52110","0.0-3.0-0.0","28","1","2022-11-29 21:24:54","2df368f4e41f066fd1c82c297b4a1108","190.45.133.37","Mozilla/5.0 (Windows NT 10.0; Win64; x64) AppleWebKit/537.36 (KHTML, like Gecko) Chrome/107.0.0.0 Safari/537.36","WebKit","Chrome","107.0.0.0","Windows","10.0","[0]","3","","",""
"15932","You see how an artist is running <br> T&uacute ves como un artista est&aacute corriendo","{""Q0"":3}","practice","27366","survey-likert","4","68046","0.0-3.0-0.1","28","1","2022-11-29 21:24:54","2df368f4e41f066fd1c82c297b4a1108","190.45.133.37","Mozilla/5.0 (Windows NT 10.0; Win64; x64) AppleWebKit/537.36 (KHTML, like Gecko) Chrome/107.0.0.0 Safari/537.36","WebKit","Chrome","107.0.0.0","Windows","10.0","[0]","3","","",""
"5925","You see how a duck is playing with a pumpkin <br> T&uacute ves como un pato est&aacute jugando con una calabaza","{""Q0"":3}","practice","27366","survey-likert","5","73974","0.0-3.0-0.2","28","1","2022-11-29 21:24:54","2df368f4e41f066fd1c82c297b4a1108","190.45.133.37","Mozilla/5.0 (Windows NT 10.0; Win64; x64) AppleWebKit/537.36 (KHTML, like Gecko) Chrome/107.0.0.0 Safari/537.36","WebKit","Chrome","107.0.0.0","Windows","10.0","[0]","3","","",""
"12853","You drop a bowling ball on a mircrowave <br> T&uacute tiras una bola de boliche a un horno","{""Q0"":3}","practice","27366","survey-likert","6","86830","0.0-3.0-0.3","28","1","2022-11-29 21:24:54","2df368f4e41f066fd1c82c297b4a1108","190.45.133.37","Mozilla/5.0 (Windows NT 10.0; Win64; x64) AppleWebKit/537.36 (KHTML, like Gecko) Chrome/107.0.0.0 Safari/537.36","WebKit","Chrome","107.0.0.0","Windows","10.0","[0]","3","","",""
"7109","You see how a teacher is drawing a picture <br> T&uacute ves como un maestro pinta una foto","{""Q0"":3}","practice","27366","survey-likert","7","93942","0.0-3.0-0.4","28","1","2022-11-29 21:24:54","2df368f4e41f066fd1c82c297b4a1108","190.45.133.37","Mozilla/5.0 (Windows NT 10.0; Win64; x64) AppleWebKit/537.36 (KHTML, like Gecko) Chrome/107.0.0.0 Safari/537.36","WebKit","Chrome","107.0.0.0","Windows","10.0","[0]","3","","",""
"6517","You see how a tiger is playing with a goose <br> T&uacute ves como un le&oacuten come una pizza","{""Q0"":0}","practice","27366","survey-likert","8","100462","0.0-3.0-0.5","28","1","2022-11-29 21:24:54","2df368f4e41f066fd1c82c297b4a1108","190.45.133.37","Mozilla/5.0 (Windows NT 10.0; Win64; x64) AppleWebKit/537.36 (KHTML, like Gecko) Chrome/107.0.0.0 Safari/537.36","WebKit","Chrome","107.0.0.0","Windows","10.0","[0]","0","","",""
"47529","You see how a tiger is playing with a goose <br> T&uacute ves como un le&oacuten come una pizza","{""Q0"":""The spanish phrase mentions different animals""}","practice_low_rate","27366","survey-text","9","147998","0.0-3.0-1.5-0.5","28","1","2022-11-29 21:24:54","2df368f4e41f066fd1c82c297b4a1108","190.45.133.37","Mozilla/5.0 (Windows NT 10.0; Win64; x64) AppleWebKit/537.36 (KHTML, like Gecko) Chrome/107.0.0.0 Safari/537.36","WebKit","Chrome","107.0.0.0","Windows","10.0","","","5","",""
"3007","<p style=""font-size:20px;"">You have now completed the practice session! </p>
        <p style=""font-size:20px;"">You will now move on to the main experiment. </p>
        <p style=""font-size:20px;"">Please click the button below to continue. </p>","0","movetoexp","27366","html-button-response","10","151006","0.0-4.0","28","1","2022-11-29 21:24:54","2df368f4e41f066fd1c82c297b4a1108","190.45.133.37","Mozilla/5.0 (Windows NT 10.0; Win64; x64) AppleWebKit/537.36 (KHTML, like Gecko) Chrome/107.0.0.0 Safari/537.36","WebKit","Chrome","107.0.0.0","Windows","10.0","","","","",""
"13134","You drop a bowling ball on glasses <br> T&uacute tiras una bola de boliche a unas gafas","{""Q0"":3}","trial","27366","survey-likert","11","164143","0.0-5.0-0.0","28","1","2022-11-29 21:24:54","2df368f4e41f066fd1c82c297b4a1108","190.45.133.37","Mozilla/5.0 (Windows NT 10.0; Win64; x64) AppleWebKit/537.36 (KHTML, like Gecko) Chrome/107.0.0.0 Safari/537.36","WebKit","Chrome","107.0.0.0","Windows","10.0","[0]","","9","3",""
"9420","You drop a bowling ball on a chocolate ice-cream <br> T&uacute tiras una bola de boliche a un helado de chocolate","{""Q0"":3}","trial","27366","survey-likert","12","173566","0.0-5.0-0.1","28","1","2022-11-29 21:24:54","2df368f4e41f066fd1c82c297b4a1108","190.45.133.37","Mozilla/5.0 (Windows NT 10.0; Win64; x64) AppleWebKit/537.36 (KHTML, like Gecko) Chrome/107.0.0.0 Safari/537.36","WebKit","Chrome","107.0.0.0","Windows","10.0","[0]","","11","3",""
"9949","You see how a cook is taking a knife <br> T&uacute ves como un cocinero est&aacute agarrando un cuchillo","{""Q0"":3}","trial","27366","survey-likert","13","183519","0.0-5.0-0.2","28","1","2022-11-29 21:24:54","2df368f4e41f066fd1c82c297b4a1108","190.45.133.37","Mozilla/5.0 (Windows NT 10.0; Win64; x64) AppleWebKit/537.36 (KHTML, like Gecko) Chrome/107.0.0.0 Safari/537.36","WebKit","Chrome","107.0.0.0","Windows","10.0","[0]","","71","3",""
"3597","You see how an owl is sitting on the branch <br> T&uacute ves como un b&uacuteho est&aacute reposando en una rama","{""Q0"":3}","trial","27366","survey-likert","14","187119","0.0-5.0-0.3","28","1","2022-11-29 21:24:54","2df368f4e41f066fd1c82c297b4a1108","190.45.133.37","Mozilla/5.0 (Windows NT 10.0; Win64; x64) AppleWebKit/537.36 (KHTML, like Gecko) Chrome/107.0.0.0 Safari/537.36","WebKit","Chrome","107.0.0.0","Windows","10.0","[0]","","69","3",""
"2956","You drop a bowling ball on a tomato <br> T&uacute tiras una bola de boliche a un tomate","{""Q0"":3}","trial","27366","survey-likert","15","190079","0.0-5.0-0.4","28","1","2022-11-29 21:24:54","2df368f4e41f066fd1c82c297b4a1108","190.45.133.37","Mozilla/5.0 (Windows NT 10.0; Win64; x64) AppleWebKit/537.36 (KHTML, like Gecko) Chrome/107.0.0.0 Safari/537.36","WebKit","Chrome","107.0.0.0","Windows","10.0","[0]","","23","3",""
"3030","You drop a pencil on the shoe <br> T&uacute tiras un l&aacutepiz al zapato","{""Q0"":3}","trial","27366","survey-likert","16","193113","0.0-5.0-0.5","28","1","2022-11-29 21:24:54","2df368f4e41f066fd1c82c297b4a1108","190.45.133.37","Mozilla/5.0 (Windows NT 10.0; Win64; x64) AppleWebKit/537.36 (KHTML, like Gecko) Chrome/107.0.0.0 Safari/537.36","WebKit","Chrome","107.0.0.0","Windows","10.0","[0]","","40","3",""
"5363","You drop a bowling ball on a chocolate muffin <br> T&uacute tiras una bola de boliche a una magdalena de chocolate","{""Q0"":3}","trial","27366","survey-likert","17","198479","0.0-5.0-0.6","28","1","2022-11-29 21:24:54","2df368f4e41f066fd1c82c297b4a1108","190.45.133.37","Mozilla/5.0 (Windows NT 10.0; Win64; x64) AppleWebKit/537.36 (KHTML, like Gecko) Chrome/107.0.0.0 Safari/537.36","WebKit","Chrome","107.0.0.0","Windows","10.0","[0]","","16","3",""
"5021","You see how a hairdresser is taking scissors <br> T&uacute ves como una peluquera est&aacute agarrando las tijeras","{""Q0"":3}","trial","27366","survey-likert","18","203503","0.0-5.0-0.7","28","1","2022-11-29 21:24:54","2df368f4e41f066fd1c82c297b4a1108","190.45.133.37","Mozilla/5.0 (Windows NT 10.0; Win64; x64) AppleWebKit/537.36 (KHTML, like Gecko) Chrome/107.0.0.0 Safari/537.36","WebKit","Chrome","107.0.0.0","Windows","10.0","[0]","","60","3",""
"3445","You drop a bowling ball on a light bulb <br> T&uacute tiras una bola de boliche a una bombilla","{""Q0"":3}","trial","27366","survey-likert","19","206951","0.0-5.0-0.8","28","1","2022-11-29 21:24:54","2df368f4e41f066fd1c82c297b4a1108","190.45.133.37","Mozilla/5.0 (Windows NT 10.0; Win64; x64) AppleWebKit/537.36 (KHTML, like Gecko) Chrome/107.0.0.0 Safari/537.36","WebKit","Chrome","107.0.0.0","Windows","10.0","[0]","","14","3",""
"2757","You drop a bowling ball on an empty can of beer <br> T&uacute tiras una bola de boliche a una lata de cerveza vac&iacutea","{""Q0"":3}","trial","27366","survey-likert","20","209711","0.0-5.0-0.9","28","1","2022-11-29 21:24:54","2df368f4e41f066fd1c82c297b4a1108","190.45.133.37","Mozilla/5.0 (Windows NT 10.0; Win64; x64) AppleWebKit/537.36 (KHTML, like Gecko) Chrome/107.0.0.0 Safari/537.36","WebKit","Chrome","107.0.0.0","Windows","10.0","[0]","","3","3",""
"4956","You drop a bowling ball on an iPhone <br> T&uacute tiras una bola de boliche a un iPhone","{""Q0"":3}","trial","27366","survey-likert","21","214671","0.0-5.0-0.10","28","1","2022-11-29 21:24:54","2df368f4e41f066fd1c82c297b4a1108","190.45.133.37","Mozilla/5.0 (Windows NT 10.0; Win64; x64) AppleWebKit/537.36 (KHTML, like Gecko) Chrome/107.0.0.0 Safari/537.36","WebKit","Chrome","107.0.0.0","Windows","10.0","[0]","","13","3",""
"3181","You drop a towel on the TV <br> T&uacute tiras una toalla a la televisi&oacuten","{""Q0"":3}","trial","27366","survey-likert","22","217855","0.0-5.0-0.11","28","1","2022-11-29 21:24:54","2df368f4e41f066fd1c82c297b4a1108","190.45.133.37","Mozilla/5.0 (Windows NT 10.0; Win64; x64) AppleWebKit/537.36 (KHTML, like Gecko) Chrome/107.0.0.0 Safari/537.36","WebKit","Chrome","107.0.0.0","Windows","10.0","[0]","","53","3",""
"3797","You see how a boy is peeling a banana <br> T&uacute ves como un ni&ntildeo est&aacute pelando una banana","{""Q0"":3}","trial","27366","survey-likert","23","221655","0.0-5.0-0.12","28","1","2022-11-29 21:24:54","2df368f4e41f066fd1c82c297b4a1108","190.45.133.37","Mozilla/5.0 (Windows NT 10.0; Win64; x64) AppleWebKit/537.36 (KHTML, like Gecko) Chrome/107.0.0.0 Safari/537.36","WebKit","Chrome","107.0.0.0","Windows","10.0","[0]","","30","3",""
"8749","You see how a man is playing with a cat <br> T&uacute ves como un hombre est&aacute jugando con un gato","{""Q0"":3}","trial","27366","survey-likert","24","230407","0.0-5.0-0.13","28","1","2022-11-29 21:24:54","2df368f4e41f066fd1c82c297b4a1108","190.45.133.37","Mozilla/5.0 (Windows NT 10.0; Win64; x64) AppleWebKit/537.36 (KHTML, like Gecko) Chrome/107.0.0.0 Safari/537.36","WebKit","Chrome","107.0.0.0","Windows","10.0","[0]","","67","3",""
"2989","You see how an actress is taking a microphone <br> T&uacute ves como una actriz est&aacute agarrando el micr&oacutefono","{""Q0"":3}","trial","27366","survey-likert","25","233399","0.0-5.0-0.14","28","1","2022-11-29 21:24:54","2df368f4e41f066fd1c82c297b4a1108","190.45.133.37","Mozilla/5.0 (Windows NT 10.0; Win64; x64) AppleWebKit/537.36 (KHTML, like Gecko) Chrome/107.0.0.0 Safari/537.36","WebKit","Chrome","107.0.0.0","Windows","10.0","[0]","","51","3",""
"2637","You see how a puppy is playing with a ball <br> T&uacute ves como un cachorro est&aacute jugando con una pelota","{""Q0"":3}","trial","27366","survey-likert","26","236039","0.0-5.0-0.15","28","1","2022-11-29 21:24:54","2df368f4e41f066fd1c82c297b4a1108","190.45.133.37","Mozilla/5.0 (Windows NT 10.0; Win64; x64) AppleWebKit/537.36 (KHTML, like Gecko) Chrome/107.0.0.0 Safari/537.36","WebKit","Chrome","107.0.0.0","Windows","10.0","[0]","","34","3",""
"2659","You drop a bowling ball on a cracker <br> T&uacute tiras una bola de boliche a una galleta","{""Q0"":3}","trial","27366","survey-likert","27","238702","0.0-5.0-0.16","28","1","2022-11-29 21:24:54","2df368f4e41f066fd1c82c297b4a1108","190.45.133.37","Mozilla/5.0 (Windows NT 10.0; Win64; x64) AppleWebKit/537.36 (KHTML, like Gecko) Chrome/107.0.0.0 Safari/537.36","WebKit","Chrome","107.0.0.0","Windows","10.0","[0]","","4","3",""
"3197","You drop a thermometer on the box <br> T&uacute tiras un term&oacutemetro a la caja","{""Q0"":3}","trial","27366","survey-likert","28","241903","0.0-5.0-0.17","28","1","2022-11-29 21:24:54","2df368f4e41f066fd1c82c297b4a1108","190.45.133.37","Mozilla/5.0 (Windows NT 10.0; Win64; x64) AppleWebKit/537.36 (KHTML, like Gecko) Chrome/107.0.0.0 Safari/537.36","WebKit","Chrome","107.0.0.0","Windows","10.0","[0]","","70","3",""
"2428","You see how a horse is chewing hay <br> T&uacute ves como un caballo est&aacute masticando el heno","{""Q0"":3}","trial","27366","survey-likert","29","244334","0.0-5.0-0.18","28","1","2022-11-29 21:24:54","2df368f4e41f066fd1c82c297b4a1108","190.45.133.37","Mozilla/5.0 (Windows NT 10.0; Win64; x64) AppleWebKit/537.36 (KHTML, like Gecko) Chrome/107.0.0.0 Safari/537.36","WebKit","Chrome","107.0.0.0","Windows","10.0","[0]","","55","3",""
"2981","You drop a bowling ball on a donut <br> T&uacute tiras una bola de boliche a una rosquilla","{""Q0"":3}","trial","27366","survey-likert","30","247318","0.0-5.0-0.19","28","1","2022-11-29 21:24:54","2df368f4e41f066fd1c82c297b4a1108","190.45.133.37","Mozilla/5.0 (Windows NT 10.0; Win64; x64) AppleWebKit/537.36 (KHTML, like Gecko) Chrome/107.0.0.0 Safari/537.36","WebKit","Chrome","107.0.0.0","Windows","10.0","[0]","","17","3",""
"4468","You drop a keyboard on the bed <br> T&uacute tiras un teclado a la cama","{""Q0"":3}","trial","27366","survey-likert","31","251790","0.0-5.0-0.20","28","1","2022-11-29 21:24:54","2df368f4e41f066fd1c82c297b4a1108","190.45.133.37","Mozilla/5.0 (Windows NT 10.0; Win64; x64) AppleWebKit/537.36 (KHTML, like Gecko) Chrome/107.0.0.0 Safari/537.36","WebKit","Chrome","107.0.0.0","Windows","10.0","[0]","","36","3",""
"5540","You see how a woman is paying with a debit card <br> T&uacute ves como una mujer est&aacute pagando con una tarjeta de d&eacutebito","{""Q0"":3}","trial","27366","survey-likert","32","257334","0.0-5.0-0.21","28","1","2022-11-29 21:24:54","2df368f4e41f066fd1c82c297b4a1108","190.45.133.37","Mozilla/5.0 (Windows NT 10.0; Win64; x64) AppleWebKit/537.36 (KHTML, like Gecko) Chrome/107.0.0.0 Safari/537.36","WebKit","Chrome","107.0.0.0","Windows","10.0","[0]","","64","3",""
"2156","You see how a donkey is drinking water <br> T&uacute ves como un burro est&aacute bebiendo agua","{""Q0"":3}","trial","27366","survey-likert","33","259494","0.0-5.0-0.22","28","1","2022-11-29 21:24:54","2df368f4e41f066fd1c82c297b4a1108","190.45.133.37","Mozilla/5.0 (Windows NT 10.0; Win64; x64) AppleWebKit/537.36 (KHTML, like Gecko) Chrome/107.0.0.0 Safari/537.36","WebKit","Chrome","107.0.0.0","Windows","10.0","[0]","","45","3",""
"2948","You drop a remote on the rug <br> T&uacute tiras un control remoto a la alfombra","{""Q0"":3}","trial","27366","survey-likert","34","262446","0.0-5.0-0.23","28","1","2022-11-29 21:24:54","2df368f4e41f066fd1c82c297b4a1108","190.45.133.37","Mozilla/5.0 (Windows NT 10.0; Win64; x64) AppleWebKit/537.36 (KHTML, like Gecko) Chrome/107.0.0.0 Safari/537.36","WebKit","Chrome","107.0.0.0","Windows","10.0","[0]","","39","3",""
"3244","You see how a president is writing in the notebook <br> T&uacute ves como un presidente est&aacute escribiendo en la libreta","{""Q0"":3}","trial","27366","survey-likert","35","265694","0.0-5.0-0.24","28","1","2022-11-29 21:24:54","2df368f4e41f066fd1c82c297b4a1108","190.45.133.37","Mozilla/5.0 (Windows NT 10.0; Win64; x64) AppleWebKit/537.36 (KHTML, like Gecko) Chrome/107.0.0.0 Safari/537.36","WebKit","Chrome","107.0.0.0","Windows","10.0","[0]","","63","3",""
"1949","You drop a bowling ball on a mirror <br> T&uacute tiras una bola de boliche a un espejo","{""Q0"":3}","trial","27366","survey-likert","36","267647","0.0-5.0-0.25","28","1","2022-11-29 21:24:54","2df368f4e41f066fd1c82c297b4a1108","190.45.133.37","Mozilla/5.0 (Windows NT 10.0; Win64; x64) AppleWebKit/537.36 (KHTML, like Gecko) Chrome/107.0.0.0 Safari/537.36","WebKit","Chrome","107.0.0.0","Windows","10.0","[0]","","15","3",""
"2083","You see how a pilot is reading a book <br> T&uacute ves como un piloto est&aacute leyendo un libro","{""Q0"":3}","trial","27366","survey-likert","37","269734","0.0-5.0-0.26","28","1","2022-11-29 21:24:54","2df368f4e41f066fd1c82c297b4a1108","190.45.133.37","Mozilla/5.0 (Windows NT 10.0; Win64; x64) AppleWebKit/537.36 (KHTML, like Gecko) Chrome/107.0.0.0 Safari/537.36","WebKit","Chrome","107.0.0.0","Windows","10.0","[0]","","61","3",""
"13852","You drop a bowling ball on a porcelain figure <br> T&uacute tiras una bola de boliche a una figura de porcelana","{""Q0"":3}","trial","27366","survey-likert","38","283591","0.0-5.0-0.27","28","1","2022-11-29 21:24:54","2df368f4e41f066fd1c82c297b4a1108","190.45.133.37","Mozilla/5.0 (Windows NT 10.0; Win64; x64) AppleWebKit/537.36 (KHTML, like Gecko) Chrome/107.0.0.0 Safari/537.36","WebKit","Chrome","107.0.0.0","Windows","10.0","[0]","","1","3",""
"2628","You see how a student is writing on a board <br> T&uacute ves como un estudiante est&aacute escribiendo en la pizarra","{""Q0"":3}","trial","27366","survey-likert","39","286223","0.0-5.0-0.28","28","1","2022-11-29 21:24:54","2df368f4e41f066fd1c82c297b4a1108","190.45.133.37","Mozilla/5.0 (Windows NT 10.0; Win64; x64) AppleWebKit/537.36 (KHTML, like Gecko) Chrome/107.0.0.0 Safari/537.36","WebKit","Chrome","107.0.0.0","Windows","10.0","[0]","","50","3",""
"3051","You see how a parrot is eating an apple <br> T&uacute ves como un loro est&aacute comiendo una manzana","{""Q0"":3}","trial","27366","survey-likert","40","289278","0.0-5.0-0.29","28","1","2022-11-29 21:24:54","2df368f4e41f066fd1c82c297b4a1108","190.45.133.37","Mozilla/5.0 (Windows NT 10.0; Win64; x64) AppleWebKit/537.36 (KHTML, like Gecko) Chrome/107.0.0.0 Safari/537.36","WebKit","Chrome","107.0.0.0","Windows","10.0","[0]","","58","3",""
"6316","You see how a zebra is playing with a horse <br> T&uacute ves como una cebra est&aacute jugando con un caballo","{""Q0"":3}","trial","27366","survey-likert","41","295598","0.0-5.0-0.30","28","1","2022-11-29 21:24:54","2df368f4e41f066fd1c82c297b4a1108","190.45.133.37","Mozilla/5.0 (Windows NT 10.0; Win64; x64) AppleWebKit/537.36 (KHTML, like Gecko) Chrome/107.0.0.0 Safari/537.36","WebKit","Chrome","107.0.0.0","Windows","10.0","[0]","","66","3",""
"2676","You drop a bowling ball on a wine glass <br> T&uacute tiras una bola de boliche a una copa de vino","{""Q0"":3}","trial","27366","survey-likert","42","298279","0.0-5.0-0.31","28","1","2022-11-29 21:24:54","2df368f4e41f066fd1c82c297b4a1108","190.45.133.37","Mozilla/5.0 (Windows NT 10.0; Win64; x64) AppleWebKit/537.36 (KHTML, like Gecko) Chrome/107.0.0.0 Safari/537.36","WebKit","Chrome","107.0.0.0","Windows","10.0","[0]","","5","3",""
"17012","You see how an astronaut is putting on a space suit <br> T&uacute ves como un astronauta se est&aacute poniendo su traje espacial","{""Q0"":3}","trial","27366","survey-likert","43","315295","0.0-5.0-0.32","28","1","2022-11-29 21:24:54","2df368f4e41f066fd1c82c297b4a1108","190.45.133.37","Mozilla/5.0 (Windows NT 10.0; Win64; x64) AppleWebKit/537.36 (KHTML, like Gecko) Chrome/107.0.0.0 Safari/537.36","WebKit","Chrome","107.0.0.0","Windows","10.0","[0]","","33","3",""
"72109","You drop a fork on the plate <br> T&uacute tiras un tenedor al plato","{""Q0"":3}","trial","27366","survey-likert","44","387407","0.0-5.0-0.33","28","1","2022-11-29 21:24:54","2df368f4e41f066fd1c82c297b4a1108","190.45.133.37","Mozilla/5.0 (Windows NT 10.0; Win64; x64) AppleWebKit/537.36 (KHTML, like Gecko) Chrome/107.0.0.0 Safari/537.36","WebKit","Chrome","107.0.0.0","Windows","10.0","[0]","","26","3",""
"2433","You drop a watch on the laptop <br> T&uacute tiras un reloj al port&aacutetil","{""Q0"":3}","trial","27366","survey-likert","45","389846","0.0-5.0-0.34","28","1","2022-11-29 21:24:54","2df368f4e41f066fd1c82c297b4a1108","190.45.133.37","Mozilla/5.0 (Windows NT 10.0; Win64; x64) AppleWebKit/537.36 (KHTML, like Gecko) Chrome/107.0.0.0 Safari/537.36","WebKit","Chrome","107.0.0.0","Windows","10.0","[0]","","37","3",""
"3140","You see how a thief is stealing a wallet <br> T&uacute ves como un ladr&oacuten est&aacute robando una billetera","{""Q0"":3}","trial","27366","survey-likert","46","392990","0.0-5.0-0.35","28","1","2022-11-29 21:24:54","2df368f4e41f066fd1c82c297b4a1108","190.45.133.37","Mozilla/5.0 (Windows NT 10.0; Win64; x64) AppleWebKit/537.36 (KHTML, like Gecko) Chrome/107.0.0.0 Safari/537.36","WebKit","Chrome","107.0.0.0","Windows","10.0","[0]","","68","3",""
"2396","You drop a cabbage on the table <br> T&uacute tiras una col a la mesa","{""Q0"":3}","trial","27366","survey-likert","47","395390","0.0-5.0-0.36","28","1","2022-11-29 21:24:54","2df368f4e41f066fd1c82c297b4a1108","190.45.133.37","Mozilla/5.0 (Windows NT 10.0; Win64; x64) AppleWebKit/537.36 (KHTML, like Gecko) Chrome/107.0.0.0 Safari/537.36","WebKit","Chrome","107.0.0.0","Windows","10.0","[0]","","35","3",""
"3915","You see how a dentist is drinking a can of cola <br> T&uacute ves como un dentista est&aacute bebiendo una lata de cola","{""Q0"":3}","trial","27366","survey-likert","48","399310","0.0-5.0-0.37","28","1","2022-11-29 21:24:54","2df368f4e41f066fd1c82c297b4a1108","190.45.133.37","Mozilla/5.0 (Windows NT 10.0; Win64; x64) AppleWebKit/537.36 (KHTML, like Gecko) Chrome/107.0.0.0 Safari/537.36","WebKit","Chrome","107.0.0.0","Windows","10.0","[0]","","47","3",""
"1963","You drop a bowling ball on an iPAD <br> T&uacute tiras una bola de boliche a un iPad","{""Q0"":3}","trial","27366","survey-likert","49","401278","0.0-5.0-0.38","28","1","2022-11-29 21:24:54","2df368f4e41f066fd1c82c297b4a1108","190.45.133.37","Mozilla/5.0 (Windows NT 10.0; Win64; x64) AppleWebKit/537.36 (KHTML, like Gecko) Chrome/107.0.0.0 Safari/537.36","WebKit","Chrome","107.0.0.0","Windows","10.0","[0]","","12","3",""
"32219","You drop a bowling ball on a rice cake <br> T&uacute tiras una bola de boliche a una tortita de arroz","{""Q0"":3}","trial","27366","survey-likert","50","433503","0.0-5.0-0.39","28","1","2022-11-29 21:24:54","2df368f4e41f066fd1c82c297b4a1108","190.45.133.37","Mozilla/5.0 (Windows NT 10.0; Win64; x64) AppleWebKit/537.36 (KHTML, like Gecko) Chrome/107.0.0.0 Safari/537.36","WebKit","Chrome","107.0.0.0","Windows","10.0","[0]","","18","3",""
"80212","You see how a police officer is talking on the phone <br> T&uacute ves como un polic&iacutea est&aacute hablando por el tel&eacutefono","{""Q0"":3}","trial","27366","survey-likert","51","513719","0.0-5.0-0.40","28","1","2022-11-29 21:24:54","2df368f4e41f066fd1c82c297b4a1108","190.45.133.37","Mozilla/5.0 (Windows NT 10.0; Win64; x64) AppleWebKit/537.36 (KHTML, like Gecko) Chrome/107.0.0.0 Safari/537.36","WebKit","Chrome","107.0.0.0","Windows","10.0","[0]","","62","3",""
"53322","You drop a bowling ball on an egg flan <br> T&uacute tiras una bola de boliche a un flan","{""Q0"":2}","trial","27366","survey-likert","52","567047","0.0-5.0-0.41","28","1","2022-11-29 21:24:54","2df368f4e41f066fd1c82c297b4a1108","190.45.133.37","Mozilla/5.0 (Windows NT 10.0; Win64; x64) AppleWebKit/537.36 (KHTML, like Gecko) Chrome/107.0.0.0 Safari/537.36","WebKit","Chrome","107.0.0.0","Windows","10.0","[0]","","7","2",""
"3170","You see how a teenage girl is playing the piano <br> T&uacute ves como una ni&ntildea adolescente est&aacute tocando el piano","{""Q0"":3}","trial","27366","survey-likert","53","570222","0.0-5.0-0.42","28","1","2022-11-29 21:24:54","2df368f4e41f066fd1c82c297b4a1108","190.45.133.37","Mozilla/5.0 (Windows NT 10.0; Win64; x64) AppleWebKit/537.36 (KHTML, like Gecko) Chrome/107.0.0.0 Safari/537.36","WebKit","Chrome","107.0.0.0","Windows","10.0","[0]","","54","3",""
"92580","You drop a bowling ball on a ceramic plate <br> T&uacute tiras una bola de boliche a un plato de cer&aacutemica","{""Q0"":3}","trial","27366","survey-likert","54","662807","0.0-5.0-0.43","28","1","2022-11-29 21:24:54","2df368f4e41f066fd1c82c297b4a1108","190.45.133.37","Mozilla/5.0 (Windows NT 10.0; Win64; x64) AppleWebKit/537.36 (KHTML, like Gecko) Chrome/107.0.0.0 Safari/537.36","WebKit","Chrome","107.0.0.0","Windows","10.0","[0]","","19","3",""
"31827","You see how a man is shaving his beard <br> T&uacute ves como un hombre se est&aacute afeitando la barba","{""Q0"":3}","trial","27366","survey-likert","55","694639","0.0-5.0-0.44","28","1","2022-11-29 21:24:54","2df368f4e41f066fd1c82c297b4a1108","190.45.133.37","Mozilla/5.0 (Windows NT 10.0; Win64; x64) AppleWebKit/537.36 (KHTML, like Gecko) Chrome/107.0.0.0 Safari/537.36","WebKit","Chrome","107.0.0.0","Windows","10.0","[0]","","43","3",""
"2563","You drop a bowling ball on a hat <br> T&uacute tiras una bola de boliche a una gorra","{""Q0"":3}","trial","27366","survey-likert","56","697207","0.0-5.0-0.45","28","1","2022-11-29 21:24:54","2df368f4e41f066fd1c82c297b4a1108","190.45.133.37","Mozilla/5.0 (Windows NT 10.0; Win64; x64) AppleWebKit/537.36 (KHTML, like Gecko) Chrome/107.0.0.0 Safari/537.36","WebKit","Chrome","107.0.0.0","Windows","10.0","[0]","","10","3",""
"3300","You see how a panda is resting on a tree <br> T&uacute ves como un panda est&aacute descansando en un &aacuterbol","{""Q0"":3}","trial","27366","survey-likert","57","700511","0.0-5.0-0.46","28","1","2022-11-29 21:24:54","2df368f4e41f066fd1c82c297b4a1108","190.45.133.37","Mozilla/5.0 (Windows NT 10.0; Win64; x64) AppleWebKit/537.36 (KHTML, like Gecko) Chrome/107.0.0.0 Safari/537.36","WebKit","Chrome","107.0.0.0","Windows","10.0","[0]","","57","3",""
"8675","You see how a nurse is taking a syringe <br> T&uacute ves como una enfermera est&aacute agarrando una jeringuilla","{""Q0"":3}","trial","27366","survey-likert","58","709191","0.0-5.0-0.47","28","1","2022-11-29 21:24:54","2df368f4e41f066fd1c82c297b4a1108","190.45.133.37","Mozilla/5.0 (Windows NT 10.0; Win64; x64) AppleWebKit/537.36 (KHTML, like Gecko) Chrome/107.0.0.0 Safari/537.36","WebKit","Chrome","107.0.0.0","Windows","10.0","[0]","","48","3",""
"3156","You drop a ring on the newspaper <br> T&uacute tiras un anillo al peri&oacutedico","{""Q0"":3}","trial","27366","survey-likert","59","712352","0.0-5.0-0.48","28","1","2022-11-29 21:24:54","2df368f4e41f066fd1c82c297b4a1108","190.45.133.37","Mozilla/5.0 (Windows NT 10.0; Win64; x64) AppleWebKit/537.36 (KHTML, like Gecko) Chrome/107.0.0.0 Safari/537.36","WebKit","Chrome","107.0.0.0","Windows","10.0","[0]","","41","3",""
"13970","You drop a bowling ball on a piece of cake <br> T&uacute tiras una bola de boliche a un trozo de pastel","{""Q0"":3}","trial","27366","survey-likert","60","726327","0.0-5.0-0.49","28","1","2022-11-29 21:24:54","2df368f4e41f066fd1c82c297b4a1108","190.45.133.37","Mozilla/5.0 (Windows NT 10.0; Win64; x64) AppleWebKit/537.36 (KHTML, like Gecko) Chrome/107.0.0.0 Safari/537.36","WebKit","Chrome","107.0.0.0","Windows","10.0","[0]","","2","3",""
"4155","You see how an elephant is eating a watermelon <br> T&uacute ves como un elefante est&aacute comiendo una sand&iacutea","{""Q0"":3}","trial","27366","survey-likert","61","730487","0.0-5.0-0.50","28","1","2022-11-29 21:24:54","2df368f4e41f066fd1c82c297b4a1108","190.45.133.37","Mozilla/5.0 (Windows NT 10.0; Win64; x64) AppleWebKit/537.36 (KHTML, like Gecko) Chrome/107.0.0.0 Safari/537.36","WebKit","Chrome","107.0.0.0","Windows","10.0","[0]","","31","3",""
"2162","You see how a man is boiling potatoes <br> T&uacute ves a un hombre est&aacute hirviendo papas","{""Q0"":3}","trial","27366","survey-likert","62","732655","0.0-5.0-0.51","28","1","2022-11-29 21:24:54","2df368f4e41f066fd1c82c297b4a1108","190.45.133.37","Mozilla/5.0 (Windows NT 10.0; Win64; x64) AppleWebKit/537.36 (KHTML, like Gecko) Chrome/107.0.0.0 Safari/537.36","WebKit","Chrome","107.0.0.0","Windows","10.0","[0]","","46","3",""
"2347","You drop a cushion on the magazine <br> T&uacute tiras un coj&iacuten a la revista","{""Q0"":3}","trial","27366","survey-likert","63","735007","0.0-5.0-0.52","28","1","2022-11-29 21:24:54","2df368f4e41f066fd1c82c297b4a1108","190.45.133.37","Mozilla/5.0 (Windows NT 10.0; Win64; x64) AppleWebKit/537.36 (KHTML, like Gecko) Chrome/107.0.0.0 Safari/537.36","WebKit","Chrome","107.0.0.0","Windows","10.0","[0]","","38","3",""
"1843","You drop a bowling ball on a paper cup <br> T&uacute tiras una bola de boliche a un vaso de papel","{""Q0"":3}","trial","27366","survey-likert","64","736855","0.0-5.0-0.53","28","1","2022-11-29 21:24:54","2df368f4e41f066fd1c82c297b4a1108","190.45.133.37","Mozilla/5.0 (Windows NT 10.0; Win64; x64) AppleWebKit/537.36 (KHTML, like Gecko) Chrome/107.0.0.0 Safari/537.36","WebKit","Chrome","107.0.0.0","Windows","10.0","[0]","","24","3",""
"3267","You drop a bowling ball on an egg <br> T&uacute tiras una bola de boliche a un huevo","{""Q0"":3}","trial","27366","survey-likert","65","740127","0.0-5.0-0.54","28","1","2022-11-29 21:24:54","2df368f4e41f066fd1c82c297b4a1108","190.45.133.37","Mozilla/5.0 (Windows NT 10.0; Win64; x64) AppleWebKit/537.36 (KHTML, like Gecko) Chrome/107.0.0.0 Safari/537.36","WebKit","Chrome","107.0.0.0","Windows","10.0","[0]","","6","3",""
"30434","You drop a bowling ball on a blackberry <br> T&uacute tiras una bola de boliche a una mora","{""Q0"":2}","trial","27366","survey-likert","66","770567","0.0-5.0-0.55","28","1","2022-11-29 21:24:54","2df368f4e41f066fd1c82c297b4a1108","190.45.133.37","Mozilla/5.0 (Windows NT 10.0; Win64; x64) AppleWebKit/537.36 (KHTML, like Gecko) Chrome/107.0.0.0 Safari/537.36","WebKit","Chrome","107.0.0.0","Windows","10.0","[0]","","8","2",""
"31866","You see how a butterfly is sitting on a flower <br> T&uacute ves como una mariposa est&aacute reposando en una flor","{""Q0"":3}","trial","27366","survey-likert","67","802439","0.0-5.0-0.56","28","1","2022-11-29 21:24:54","2df368f4e41f066fd1c82c297b4a1108","190.45.133.37","Mozilla/5.0 (Windows NT 10.0; Win64; x64) AppleWebKit/537.36 (KHTML, like Gecko) Chrome/107.0.0.0 Safari/537.36","WebKit","Chrome","107.0.0.0","Windows","10.0","[0]","","59","3",""
"2018","You drop a bowling ball on a tile <br> T&uacute tiras una bola de boliche a una baldosa","{""Q0"":3}","trial","27366","survey-likert","68","804464","0.0-5.0-0.57","28","1","2022-11-29 21:24:54","2df368f4e41f066fd1c82c297b4a1108","190.45.133.37","Mozilla/5.0 (Windows NT 10.0; Win64; x64) AppleWebKit/537.36 (KHTML, like Gecko) Chrome/107.0.0.0 Safari/537.36","WebKit","Chrome","107.0.0.0","Windows","10.0","[0]","","22","3",""
"5530","You drop a needle on the mouse pad <br> T&uacute tiras una aguja a la alfombrilla para el rat&oacuten","{""Q0"":3}","trial","27366","survey-likert","69","809999","0.0-5.0-0.58","28","1","2022-11-29 21:24:54","2df368f4e41f066fd1c82c297b4a1108","190.45.133.37","Mozilla/5.0 (Windows NT 10.0; Win64; x64) AppleWebKit/537.36 (KHTML, like Gecko) Chrome/107.0.0.0 Safari/537.36","WebKit","Chrome","107.0.0.0","Windows","10.0","[0]","","42","3",""
"2817","You see how a postman is driving a car <br> T&uacute ves como un cartero est&aacute conduciendo un coche","{""Q0"":3}","trial","27366","survey-likert","70","812823","0.0-5.0-0.59","28","1","2022-11-29 21:24:54","2df368f4e41f066fd1c82c297b4a1108","190.45.133.37","Mozilla/5.0 (Windows NT 10.0; Win64; x64) AppleWebKit/537.36 (KHTML, like Gecko) Chrome/107.0.0.0 Safari/537.36","WebKit","Chrome","107.0.0.0","Windows","10.0","[0]","","32","3",""
"2675","You drop a toothbrush on the sponge <br> T&uacute tiras un cepillo de dientes en la esponja","{""Q0"":3}","trial","27366","survey-likert","71","815503","0.0-5.0-0.60","28","1","2022-11-29 21:24:54","2df368f4e41f066fd1c82c297b4a1108","190.45.133.37","Mozilla/5.0 (Windows NT 10.0; Win64; x64) AppleWebKit/537.36 (KHTML, like Gecko) Chrome/107.0.0.0 Safari/537.36","WebKit","Chrome","107.0.0.0","Windows","10.0","[0]","","25","3",""
"2954","You see how a cat is drinking water from a bowl <br> T&uacute ves como un gato est&aacute bebiendo agua de un cuenco","{""Q0"":3}","trial","27366","survey-likert","72","818463","0.0-5.0-0.61","28","1","2022-11-29 21:24:54","2df368f4e41f066fd1c82c297b4a1108","190.45.133.37","Mozilla/5.0 (Windows NT 10.0; Win64; x64) AppleWebKit/537.36 (KHTML, like Gecko) Chrome/107.0.0.0 Safari/537.36","WebKit","Chrome","107.0.0.0","Windows","10.0","[0]","","28","3",""
"3106","You see how a musician is playing a guitar <br> T&uacute ves como un m&uacutesico est&aacute tocando la guitarra","{""Q0"":3}","trial","27366","survey-likert","73","821575","0.0-5.0-0.62","28","1","2022-11-29 21:24:54","2df368f4e41f066fd1c82c297b4a1108","190.45.133.37","Mozilla/5.0 (Windows NT 10.0; Win64; x64) AppleWebKit/537.36 (KHTML, like Gecko) Chrome/107.0.0.0 Safari/537.36","WebKit","Chrome","107.0.0.0","Windows","10.0","[0]","","27","3",""
"2930","You drop a bowling ball on a piece of sushi <br> T&uacute tiras una bola de boliche a un pedazo de sushi","{""Q0"":3}","trial","27366","survey-likert","74","824511","0.0-5.0-0.63","28","1","2022-11-29 21:24:54","2df368f4e41f066fd1c82c297b4a1108","190.45.133.37","Mozilla/5.0 (Windows NT 10.0; Win64; x64) AppleWebKit/537.36 (KHTML, like Gecko) Chrome/107.0.0.0 Safari/537.36","WebKit","Chrome","107.0.0.0","Windows","10.0","[0]","","21","3",""
"1674","You see how a mouse is eating cheese <br> T&uacute ves como el rat&oacuten est&aacute comiendo queso","{""Q0"":3}","trial","27366","survey-likert","75","826191","0.0-5.0-0.64","28","1","2022-11-29 21:24:54","2df368f4e41f066fd1c82c297b4a1108","190.45.133.37","Mozilla/5.0 (Windows NT 10.0; Win64; x64) AppleWebKit/537.36 (KHTML, like Gecko) Chrome/107.0.0.0 Safari/537.36","WebKit","Chrome","107.0.0.0","Windows","10.0","[0]","","56","3",""
"3609","You see how a giraffe is playing with a zebra <br> T&uacute ves como una jirafa est&aacute jugando con una cebra","{""Q0"":3}","trial","27366","survey-likert","76","829807","0.0-5.0-0.65","28","1","2022-11-29 21:24:54","2df368f4e41f066fd1c82c297b4a1108","190.45.133.37","Mozilla/5.0 (Windows NT 10.0; Win64; x64) AppleWebKit/537.36 (KHTML, like Gecko) Chrome/107.0.0.0 Safari/537.36","WebKit","Chrome","107.0.0.0","Windows","10.0","[0]","","65","3",""
"3194","You see how a doctor is taking a stethoscope <br> T&uacute ves como un doctor est&aacute agarrando un estetoscopio","{""Q0"":3}","trial","27366","survey-likert","77","833008","0.0-5.0-0.66","28","1","2022-11-29 21:24:54","2df368f4e41f066fd1c82c297b4a1108","190.45.133.37","Mozilla/5.0 (Windows NT 10.0; Win64; x64) AppleWebKit/537.36 (KHTML, like Gecko) Chrome/107.0.0.0 Safari/537.36","WebKit","Chrome","107.0.0.0","Windows","10.0","[0]","","49","3",""
"91259","You see how a photographer is taking a photo of a lion <br> T&uacute ves como un fot&oacutegrafo est&aacute tomando una foto de un le&oacuten","{""Q0"":3}","trial","27366","survey-likert","78","924273","0.0-5.0-0.67","28","1","2022-11-29 21:24:54","2df368f4e41f066fd1c82c297b4a1108","190.45.133.37","Mozilla/5.0 (Windows NT 10.0; Win64; x64) AppleWebKit/537.36 (KHTML, like Gecko) Chrome/107.0.0.0 Safari/537.36","WebKit","Chrome","107.0.0.0","Windows","10.0","[0]","","72","3",""
"2233","You see how an old man is hammering a nail <br> T&uacute ves como un hombre anciano est&aacute martillando un clavo","{""Q0"":3}","trial","27366","survey-likert","79","926512","0.0-5.0-0.68","28","1","2022-11-29 21:24:54","2df368f4e41f066fd1c82c297b4a1108","190.45.133.37","Mozilla/5.0 (Windows NT 10.0; Win64; x64) AppleWebKit/537.36 (KHTML, like Gecko) Chrome/107.0.0.0 Safari/537.36","WebKit","Chrome","107.0.0.0","Windows","10.0","[0]","","29","3",""
"2777","You see how a kitten is playing in the sandbox <br> T&uacute ves como un gatito est&aacute jugando en la caja de arena","{""Q0"":3}","trial","27366","survey-likert","80","929295","0.0-5.0-0.69","28","1","2022-11-29 21:24:54","2df368f4e41f066fd1c82c297b4a1108","190.45.133.37","Mozilla/5.0 (Windows NT 10.0; Win64; x64) AppleWebKit/537.36 (KHTML, like Gecko) Chrome/107.0.0.0 Safari/537.36","WebKit","Chrome","107.0.0.0","Windows","10.0","[0]","","52","3",""
"3602","You see how a woman is taking money out of a wallet <br> T&uacute ves como una mujer est&aacute sacando dinero de su billetera","{""Q0"":3}","trial","27366","survey-likert","81","932903","0.0-5.0-0.70","28","1","2022-11-29 21:24:54","2df368f4e41f066fd1c82c297b4a1108","190.45.133.37","Mozilla/5.0 (Windows NT 10.0; Win64; x64) AppleWebKit/537.36 (KHTML, like Gecko) Chrome/107.0.0.0 Safari/537.36","WebKit","Chrome","107.0.0.0","Windows","10.0","[0]","","44","3",""
"4938","You drop a bowling ball on a strawberry <br> T&uacute tiras una bola de boliche a una fresa","{""Q0"":3}","trial","27366","survey-likert","82","937848","0.0-5.0-0.71","28","1","2022-11-29 21:24:54","2df368f4e41f066fd1c82c297b4a1108","190.45.133.37","Mozilla/5.0 (Windows NT 10.0; Win64; x64) AppleWebKit/537.36 (KHTML, like Gecko) Chrome/107.0.0.0 Safari/537.36","WebKit","Chrome","107.0.0.0","Windows","10.0","[0]","","20","3",""
"26314","
    <p style=""font-size:20px;""> You have completed the experiment portion! </p>
    <p style=""font-size:20px;""> Before you are done, we would like you to answer some basic demographic questions. </p>
    <p style=""font-size:20px;""> Note that your answers to these questions will not affect your compensation/credit. </p>
    <p style=""font-size:20px;""> Click the button below to continue.</p>
    ","0","demo","27366","html-button-response","83","964167","0.0-6.0","28","1","2022-11-29 21:24:54","2df368f4e41f066fd1c82c297b4a1108","190.45.133.37","Mozilla/5.0 (Windows NT 10.0; Win64; x64) AppleWebKit/537.36 (KHTML, like Gecko) Chrome/107.0.0.0 Safari/537.36","WebKit","Chrome","107.0.0.0","Windows","10.0","","","","",""
"21456","","{""Age"":""33"",""Gender"":""male"",""Education"":""27""}","demo","27366","survey-text","84","985631","0.0-7.0-0.0","28","1","2022-11-29 21:24:54","2df368f4e41f066fd1c82c297b4a1108","190.45.133.37","Mozilla/5.0 (Windows NT 10.0; Win64; x64) AppleWebKit/537.36 (KHTML, like Gecko) Chrome/107.0.0.0 Safari/537.36","WebKit","Chrome","107.0.0.0","Windows","10.0","","","","",""
"8429","","{""Race"":[""White/Caucasian""]}","demo","27366","survey-multi-select","85","994071","0.0-7.0-1.0","28","1","2022-11-29 21:24:54","2df368f4e41f066fd1c82c297b4a1108","190.45.133.37","Mozilla/5.0 (Windows NT 10.0; Win64; x64) AppleWebKit/537.36 (KHTML, like Gecko) Chrome/107.0.0.0 Safari/537.36","WebKit","Chrome","107.0.0.0","Windows","10.0","[0]","","","",""
"5712","","{""Latino"":""Yes"",""Alert"":""Evening""}","demo","27366","survey-multi-choice","86","999791","0.0-7.0-2.0","28","1","2022-11-29 21:24:54","2df368f4e41f066fd1c82c297b4a1108","190.45.133.37","Mozilla/5.0 (Windows NT 10.0; Win64; x64) AppleWebKit/537.36 (KHTML, like Gecko) Chrome/107.0.0.0 Safari/537.36","WebKit","Chrome","107.0.0.0","Windows","10.0","[0,1]","","","",""
"4297","","{""Q0"":""""}","demo","27366","survey-text","87","1004095","0.0-7.0-3.0","28","1","2022-11-29 21:24:54","2df368f4e41f066fd1c82c297b4a1108","190.45.133.37","Mozilla/5.0 (Windows NT 10.0; Win64; x64) AppleWebKit/537.36 (KHTML, like Gecko) Chrome/107.0.0.0 Safari/537.36","WebKit","Chrome","107.0.0.0","Windows","10.0","","","","",""
"6627","<p>Thank you for participating! </p><strong>Your completion code is: CXEJB7NH. Please copy-paste this code and submit it on Prolific.</strong><p>Click <a href=""https://drive.google.com/file/d/1c70cdHFlc0AaR6RujLWLJwWkv1RbHQJY/view?usp=sharing"" target=""_blank"" rel=""noopener noreferrer"">here</a> to access the debriefing form and know more about our research. <p> Please click the button below to finish the experiment and save your data.</p> <p> IMPORTANT: Please <strong>do not leave this page </strong> without clicking the button below.</p> <p> You may close the tab/window after you click the button below.","0","","","html-button-response","88","1010727","0.0-8.0","28","1","2022-11-29 21:24:54","2df368f4e41f066fd1c82c297b4a1108","190.45.133.37","Mozilla/5.0 (Windows NT 10.0; Win64; x64) AppleWebKit/537.36 (KHTML, like Gecko) Chrome/107.0.0.0 Safari/537.36","WebKit","Chrome","107.0.0.0","Windows","10.0","","","","",""
