"rt","stimulus","response","typeoftrial","subject","trial_type","trial_index","time_elapsed","internal_node_id","run_id","condition","recorded_at","source_code_version","ip","user_agent","device","browser","browser_version","platform","platform_version","question_order","practice_rating","sentence_num","rating","Experiment"
"24666","
        <p style=""font-size:20px;""> Welcome! Thank you for your interest in our study. </p>
        <p style=""font-size:20px;""> This study is being conducted by researchers at Bowdoin College.</p>
        <p style=""font-size:20px;""> In this experiment, you will be asked to rate the accuracy of English and Spanish translations.</p>
        <p style=""font-size:20px;""> The entire experiment should not last more than 20 minutes. You will be paid $3 USD for your participation. </p>
        <p style=""font-size:20px;""> Please click <a href = ""https://drive.google.com/file/d/1L92a02eEKCpaAEipmqDcBCDR7rsarqFE/view?usp=sharing"" target = ""_blank"">here</a> to read the full consent form. </p>
        <p style=""font-size:20px;""> If you agree to participate, please click the button below to continue to experiment instructions.</p>
        ","0","consent","6135","html-button-response","0","24669","0.0-0.0","17","1","2022-11-29 21:24:45","2df368f4e41f066fd1c82c297b4a1108","188.76.93.187","Mozilla/5.0 (Windows NT 10.0; Win64; x64) AppleWebKit/537.36 (KHTML, like Gecko) Chrome/107.0.0.0 Safari/537.36 Edg/107.0.1418.56","WebKit","Edge","107.0.1418.56","Windows","10.0","","","","",""
"4090","","{""ID"":""6070318a4785a289f300e985""}","ID","6135","survey-text","1","28764","0.0-1.0","17","1","2022-11-29 21:24:45","2df368f4e41f066fd1c82c297b4a1108","188.76.93.187","Mozilla/5.0 (Windows NT 10.0; Win64; x64) AppleWebKit/537.36 (KHTML, like Gecko) Chrome/107.0.0.0 Safari/537.36 Edg/107.0.1418.56","WebKit","Edge","107.0.1418.56","Windows","10.0","","","","",""
"13839","
        <p style=""font-size:20px;""> You are about to begin the practice test. </p>
        <p style=""font-size:20px;""> On each trial, you will see a sentence in English and its corresponding Spanish translation. </p>
        <p style=""font-size:20px;""> You will rate the accuracy of the translation on a scale from ""Not at all accurate"" to ""Very accurate."" </p>
        <p style=""font-size:20px;""> If you rate the translation as ""Somewhat innaccurate"" or ""Not at all accurate,"" you will be asked to provide your own translation or a reason why the translation is inaccurate. </p>
        <p style=""font-size:20px;""> Click the button below to continue to the practice session.</p>","0","instructions","6135","html-button-response","2","42604","0.0-2.0","17","1","2022-11-29 21:24:45","2df368f4e41f066fd1c82c297b4a1108","188.76.93.187","Mozilla/5.0 (Windows NT 10.0; Win64; x64) AppleWebKit/537.36 (KHTML, like Gecko) Chrome/107.0.0.0 Safari/537.36 Edg/107.0.1418.56","WebKit","Edge","107.0.1418.56","Windows","10.0","","","","",""
"11582","You see how a teacher is drawing a picture <br> T&uacute ves como un maestro pinta una foto","{""Q0"":3}","practice","6135","survey-likert","3","54189","0.0-3.0-0.0","17","1","2022-11-29 21:24:45","2df368f4e41f066fd1c82c297b4a1108","188.76.93.187","Mozilla/5.0 (Windows NT 10.0; Win64; x64) AppleWebKit/537.36 (KHTML, like Gecko) Chrome/107.0.0.0 Safari/537.36 Edg/107.0.1418.56","WebKit","Edge","107.0.1418.56","Windows","10.0","[0]","3","","",""
"17722","You drop a bowling ball on a mircrowave <br> T&uacute tiras una bola de boliche a un horno","{""Q0"":1}","practice","6135","survey-likert","4","71917","0.0-3.0-0.1","17","1","2022-11-29 21:24:45","2df368f4e41f066fd1c82c297b4a1108","188.76.93.187","Mozilla/5.0 (Windows NT 10.0; Win64; x64) AppleWebKit/537.36 (KHTML, like Gecko) Chrome/107.0.0.0 Safari/537.36 Edg/107.0.1418.56","WebKit","Edge","107.0.1418.56","Windows","10.0","[0]","1","","",""
"25986","You drop a bowling ball on a mircrowave <br> T&uacute tiras una bola de boliche a un horno","{""Q0"":""Dejas caer la bola en el horno""}","practice_low_rate","6135","survey-text","5","97909","0.0-3.0-1.1-0.1","17","1","2022-11-29 21:24:45","2df368f4e41f066fd1c82c297b4a1108","188.76.93.187","Mozilla/5.0 (Windows NT 10.0; Win64; x64) AppleWebKit/537.36 (KHTML, like Gecko) Chrome/107.0.0.0 Safari/537.36 Edg/107.0.1418.56","WebKit","Edge","107.0.1418.56","Windows","10.0","","","6","",""
"22790","You see how an artist is running <br> T&uacute ves como un artista est&aacute corriendo","{""Q0"":3}","practice","6135","survey-likert","6","120701","0.0-3.0-0.2","17","1","2022-11-29 21:24:45","2df368f4e41f066fd1c82c297b4a1108","188.76.93.187","Mozilla/5.0 (Windows NT 10.0; Win64; x64) AppleWebKit/537.36 (KHTML, like Gecko) Chrome/107.0.0.0 Safari/537.36 Edg/107.0.1418.56","WebKit","Edge","107.0.1418.56","Windows","10.0","[0]","3","","",""
"5756","You see how a duck is playing with a pumpkin <br> T&uacute ves como un pato est&aacute jugando con una calabaza","{""Q0"":3}","practice","6135","survey-likert","7","126461","0.0-3.0-0.3","17","1","2022-11-29 21:24:45","2df368f4e41f066fd1c82c297b4a1108","188.76.93.187","Mozilla/5.0 (Windows NT 10.0; Win64; x64) AppleWebKit/537.36 (KHTML, like Gecko) Chrome/107.0.0.0 Safari/537.36 Edg/107.0.1418.56","WebKit","Edge","107.0.1418.56","Windows","10.0","[0]","3","","",""
"20596","You see how a tiger is playing with a goose <br> T&uacute ves como un le&oacuten come una pizza","{""Q0"":0}","practice","6135","survey-likert","8","147061","0.0-3.0-0.4","17","1","2022-11-29 21:24:45","2df368f4e41f066fd1c82c297b4a1108","188.76.93.187","Mozilla/5.0 (Windows NT 10.0; Win64; x64) AppleWebKit/537.36 (KHTML, like Gecko) Chrome/107.0.0.0 Safari/537.36 Edg/107.0.1418.56","WebKit","Edge","107.0.1418.56","Windows","10.0","[0]","0","","",""
"12707","You see how a tiger is playing with a goose <br> T&uacute ves como un le&oacuten come una pizza","{""Q0"":""Ves como un tigre está jugando con un ganso""}","practice_low_rate","6135","survey-text","9","159773","0.0-3.0-1.4-0.4","17","1","2022-11-29 21:24:45","2df368f4e41f066fd1c82c297b4a1108","188.76.93.187","Mozilla/5.0 (Windows NT 10.0; Win64; x64) AppleWebKit/537.36 (KHTML, like Gecko) Chrome/107.0.0.0 Safari/537.36 Edg/107.0.1418.56","WebKit","Edge","107.0.1418.56","Windows","10.0","","","5","",""
"7310","You drop a rock on a phone <br> T&uacute tiras una piedra a un tel&eacutefono","{""Q0"":1}","practice","6135","survey-likert","10","167085","0.0-3.0-0.5","17","1","2022-11-29 21:24:45","2df368f4e41f066fd1c82c297b4a1108","188.76.93.187","Mozilla/5.0 (Windows NT 10.0; Win64; x64) AppleWebKit/537.36 (KHTML, like Gecko) Chrome/107.0.0.0 Safari/537.36 Edg/107.0.1418.56","WebKit","Edge","107.0.1418.56","Windows","10.0","[0]","1","","",""
"6506","You drop a rock on a phone <br> T&uacute tiras una piedra a un tel&eacutefono","{""Q0"":""Dejas caer una piedra en el teléfono""}","practice_low_rate","6135","survey-text","11","173597","0.0-3.0-1.5-0.5","17","1","2022-11-29 21:24:45","2df368f4e41f066fd1c82c297b4a1108","188.76.93.187","Mozilla/5.0 (Windows NT 10.0; Win64; x64) AppleWebKit/537.36 (KHTML, like Gecko) Chrome/107.0.0.0 Safari/537.36 Edg/107.0.1418.56","WebKit","Edge","107.0.1418.56","Windows","10.0","","","1","",""
"1751","<p style=""font-size:20px;"">You have now completed the practice session! </p>
        <p style=""font-size:20px;"">You will now move on to the main experiment. </p>
        <p style=""font-size:20px;"">Please click the button below to continue. </p>","0","movetoexp","6135","html-button-response","12","175349","0.0-4.0","17","1","2022-11-29 21:24:45","2df368f4e41f066fd1c82c297b4a1108","188.76.93.187","Mozilla/5.0 (Windows NT 10.0; Win64; x64) AppleWebKit/537.36 (KHTML, like Gecko) Chrome/107.0.0.0 Safari/537.36 Edg/107.0.1418.56","WebKit","Edge","107.0.1418.56","Windows","10.0","","","","",""
"11535","You see how a zebra is playing with a horse <br> T&uacute ves como una cebra est&aacute jugando con un caballo","{""Q0"":3}","trial","6135","survey-likert","13","186885","0.0-5.0-0.0","17","1","2022-11-29 21:24:45","2df368f4e41f066fd1c82c297b4a1108","188.76.93.187","Mozilla/5.0 (Windows NT 10.0; Win64; x64) AppleWebKit/537.36 (KHTML, like Gecko) Chrome/107.0.0.0 Safari/537.36 Edg/107.0.1418.56","WebKit","Edge","107.0.1418.56","Windows","10.0","[0]","","66","3",""
"23683","You drop a bowling ball on a ceramic plate <br> T&uacute tiras una bola de boliche a un plato de cer&aacutemica","{""Q0"":1}","trial","6135","survey-likert","14","210573","0.0-5.0-0.1","17","1","2022-11-29 21:24:45","2df368f4e41f066fd1c82c297b4a1108","188.76.93.187","Mozilla/5.0 (Windows NT 10.0; Win64; x64) AppleWebKit/537.36 (KHTML, like Gecko) Chrome/107.0.0.0 Safari/537.36 Edg/107.0.1418.56","WebKit","Edge","107.0.1418.56","Windows","10.0","[0]","","19","1",""
"7987","You drop a bowling ball on a ceramic plate <br> T&uacute tiras una bola de boliche a un plato de cer&aacutemica","{""Q0"":""Dejas caer una bola de boliche en un plato de cerámica""}","low_rate","6135","survey-text","15","218565","0.0-5.0-1.1-0.1","17","1","2022-11-29 21:24:45","2df368f4e41f066fd1c82c297b4a1108","188.76.93.187","Mozilla/5.0 (Windows NT 10.0; Win64; x64) AppleWebKit/537.36 (KHTML, like Gecko) Chrome/107.0.0.0 Safari/537.36 Edg/107.0.1418.56","WebKit","Edge","107.0.1418.56","Windows","10.0","","","19","",""
"5159","You drop a bowling ball on a donut <br> T&uacute tiras una bola de boliche a una rosquilla","{""Q0"":1}","trial","6135","survey-likert","16","223725","0.0-5.0-0.2","17","1","2022-11-29 21:24:45","2df368f4e41f066fd1c82c297b4a1108","188.76.93.187","Mozilla/5.0 (Windows NT 10.0; Win64; x64) AppleWebKit/537.36 (KHTML, like Gecko) Chrome/107.0.0.0 Safari/537.36 Edg/107.0.1418.56","WebKit","Edge","107.0.1418.56","Windows","10.0","[0]","","17","1",""
"7363","You drop a bowling ball on a donut <br> T&uacute tiras una bola de boliche a una rosquilla","{""Q0"":""Dejas caer una bola de boliche en un donut ""}","low_rate","6135","survey-text","17","231092","0.0-5.0-1.2-0.2","17","1","2022-11-29 21:24:45","2df368f4e41f066fd1c82c297b4a1108","188.76.93.187","Mozilla/5.0 (Windows NT 10.0; Win64; x64) AppleWebKit/537.36 (KHTML, like Gecko) Chrome/107.0.0.0 Safari/537.36 Edg/107.0.1418.56","WebKit","Edge","107.0.1418.56","Windows","10.0","","","17","",""
"4223","You drop a bowling ball on a light bulb <br> T&uacute tiras una bola de boliche a una bombilla","{""Q0"":1}","trial","6135","survey-likert","18","235316","0.0-5.0-0.3","17","1","2022-11-29 21:24:45","2df368f4e41f066fd1c82c297b4a1108","188.76.93.187","Mozilla/5.0 (Windows NT 10.0; Win64; x64) AppleWebKit/537.36 (KHTML, like Gecko) Chrome/107.0.0.0 Safari/537.36 Edg/107.0.1418.56","WebKit","Edge","107.0.1418.56","Windows","10.0","[0]","","14","1",""
"6330","You drop a bowling ball on a light bulb <br> T&uacute tiras una bola de boliche a una bombilla","{""Q0"":""Dejas caer una bola de boliche en una bombilla""}","low_rate","6135","survey-text","19","241652","0.0-5.0-1.3-0.3","17","1","2022-11-29 21:24:45","2df368f4e41f066fd1c82c297b4a1108","188.76.93.187","Mozilla/5.0 (Windows NT 10.0; Win64; x64) AppleWebKit/537.36 (KHTML, like Gecko) Chrome/107.0.0.0 Safari/537.36 Edg/107.0.1418.56","WebKit","Edge","107.0.1418.56","Windows","10.0","","","14","",""
"3470","You see how a boy is peeling a banana <br> T&uacute ves como un ni&ntildeo est&aacute pelando una banana","{""Q0"":3}","trial","6135","survey-likert","20","245124","0.0-5.0-0.4","17","1","2022-11-29 21:24:45","2df368f4e41f066fd1c82c297b4a1108","188.76.93.187","Mozilla/5.0 (Windows NT 10.0; Win64; x64) AppleWebKit/537.36 (KHTML, like Gecko) Chrome/107.0.0.0 Safari/537.36 Edg/107.0.1418.56","WebKit","Edge","107.0.1418.56","Windows","10.0","[0]","","30","3",""
"3764","You drop a bowling ball on a strawberry <br> T&uacute tiras una bola de boliche a una fresa","{""Q0"":1}","trial","6135","survey-likert","21","248892","0.0-5.0-0.5","17","1","2022-11-29 21:24:45","2df368f4e41f066fd1c82c297b4a1108","188.76.93.187","Mozilla/5.0 (Windows NT 10.0; Win64; x64) AppleWebKit/537.36 (KHTML, like Gecko) Chrome/107.0.0.0 Safari/537.36 Edg/107.0.1418.56","WebKit","Edge","107.0.1418.56","Windows","10.0","[0]","","20","1",""
"10435","You drop a bowling ball on a strawberry <br> T&uacute tiras una bola de boliche a una fresa","{""Q0"":""Dejas caer una bola de boliche en una fresa""}","low_rate","6135","survey-text","22","259332","0.0-5.0-1.5-0.5","17","1","2022-11-29 21:24:45","2df368f4e41f066fd1c82c297b4a1108","188.76.93.187","Mozilla/5.0 (Windows NT 10.0; Win64; x64) AppleWebKit/537.36 (KHTML, like Gecko) Chrome/107.0.0.0 Safari/537.36 Edg/107.0.1418.56","WebKit","Edge","107.0.1418.56","Windows","10.0","","","20","",""
"4023","You see how a cook is taking a knife <br> T&uacute ves como un cocinero est&aacute agarrando un cuchillo","{""Q0"":3}","trial","6135","survey-likert","23","263356","0.0-5.0-0.6","17","1","2022-11-29 21:24:45","2df368f4e41f066fd1c82c297b4a1108","188.76.93.187","Mozilla/5.0 (Windows NT 10.0; Win64; x64) AppleWebKit/537.36 (KHTML, like Gecko) Chrome/107.0.0.0 Safari/537.36 Edg/107.0.1418.56","WebKit","Edge","107.0.1418.56","Windows","10.0","[0]","","71","3",""
"6436","You see how a dentist is drinking a can of cola <br> T&uacute ves como un dentista est&aacute bebiendo una lata de cola","{""Q0"":3}","trial","6135","survey-likert","24","269796","0.0-5.0-0.7","17","1","2022-11-29 21:24:45","2df368f4e41f066fd1c82c297b4a1108","188.76.93.187","Mozilla/5.0 (Windows NT 10.0; Win64; x64) AppleWebKit/537.36 (KHTML, like Gecko) Chrome/107.0.0.0 Safari/537.36 Edg/107.0.1418.56","WebKit","Edge","107.0.1418.56","Windows","10.0","[0]","","47","3",""
"7132","You drop a cabbage on the table <br> T&uacute tiras una col a la mesa","{""Q0"":1}","trial","6135","survey-likert","25","276932","0.0-5.0-0.8","17","1","2022-11-29 21:24:45","2df368f4e41f066fd1c82c297b4a1108","188.76.93.187","Mozilla/5.0 (Windows NT 10.0; Win64; x64) AppleWebKit/537.36 (KHTML, like Gecko) Chrome/107.0.0.0 Safari/537.36 Edg/107.0.1418.56","WebKit","Edge","107.0.1418.56","Windows","10.0","[0]","","35","1",""
"4433","You drop a cabbage on the table <br> T&uacute tiras una col a la mesa","{""Q0"":""Dejas caer una col en la mesa""}","low_rate","6135","survey-text","26","281372","0.0-5.0-1.8-0.8","17","1","2022-11-29 21:24:45","2df368f4e41f066fd1c82c297b4a1108","188.76.93.187","Mozilla/5.0 (Windows NT 10.0; Win64; x64) AppleWebKit/537.36 (KHTML, like Gecko) Chrome/107.0.0.0 Safari/537.36 Edg/107.0.1418.56","WebKit","Edge","107.0.1418.56","Windows","10.0","","","35","",""
"4447","You drop a bowling ball on a chocolate ice-cream <br> T&uacute tiras una bola de boliche a un helado de chocolate","{""Q0"":1}","trial","6135","survey-likert","27","285820","0.0-5.0-0.9","17","1","2022-11-29 21:24:45","2df368f4e41f066fd1c82c297b4a1108","188.76.93.187","Mozilla/5.0 (Windows NT 10.0; Win64; x64) AppleWebKit/537.36 (KHTML, like Gecko) Chrome/107.0.0.0 Safari/537.36 Edg/107.0.1418.56","WebKit","Edge","107.0.1418.56","Windows","10.0","[0]","","11","1",""
"5051","You drop a bowling ball on a chocolate ice-cream <br> T&uacute tiras una bola de boliche a un helado de chocolate","{""Q0"":""Dejas caer una bola de boliche en un helado de chocolate""}","low_rate","6135","survey-text","28","290876","0.0-5.0-1.9-0.9","17","1","2022-11-29 21:24:45","2df368f4e41f066fd1c82c297b4a1108","188.76.93.187","Mozilla/5.0 (Windows NT 10.0; Win64; x64) AppleWebKit/537.36 (KHTML, like Gecko) Chrome/107.0.0.0 Safari/537.36 Edg/107.0.1418.56","WebKit","Edge","107.0.1418.56","Windows","10.0","","","11","",""
"3511","You see how a donkey is drinking water <br> T&uacute ves como un burro est&aacute bebiendo agua","{""Q0"":3}","trial","6135","survey-likert","29","294388","0.0-5.0-0.10","17","1","2022-11-29 21:24:45","2df368f4e41f066fd1c82c297b4a1108","188.76.93.187","Mozilla/5.0 (Windows NT 10.0; Win64; x64) AppleWebKit/537.36 (KHTML, like Gecko) Chrome/107.0.0.0 Safari/537.36 Edg/107.0.1418.56","WebKit","Edge","107.0.1418.56","Windows","10.0","[0]","","45","3",""
"8716","You see how a woman is paying with a debit card <br> T&uacute ves como una mujer est&aacute pagando con una tarjeta de d&eacutebito","{""Q0"":3}","trial","6135","survey-likert","30","303108","0.0-5.0-0.11","17","1","2022-11-29 21:24:45","2df368f4e41f066fd1c82c297b4a1108","188.76.93.187","Mozilla/5.0 (Windows NT 10.0; Win64; x64) AppleWebKit/537.36 (KHTML, like Gecko) Chrome/107.0.0.0 Safari/537.36 Edg/107.0.1418.56","WebKit","Edge","107.0.1418.56","Windows","10.0","[0]","","64","3",""
"17108","You drop a remote on the rug <br> T&uacute tiras un control remoto a la alfombra","{""Q0"":1}","trial","6135","survey-likert","31","320220","0.0-5.0-0.12","17","1","2022-11-29 21:24:45","2df368f4e41f066fd1c82c297b4a1108","188.76.93.187","Mozilla/5.0 (Windows NT 10.0; Win64; x64) AppleWebKit/537.36 (KHTML, like Gecko) Chrome/107.0.0.0 Safari/537.36 Edg/107.0.1418.56","WebKit","Edge","107.0.1418.56","Windows","10.0","[0]","","39","1",""
"8227","You drop a remote on the rug <br> T&uacute tiras un control remoto a la alfombra","{""Q0"":""Dejas caer un control remoto en la alfombra""}","low_rate","6135","survey-text","32","328452","0.0-5.0-1.12-0.12","17","1","2022-11-29 21:24:45","2df368f4e41f066fd1c82c297b4a1108","188.76.93.187","Mozilla/5.0 (Windows NT 10.0; Win64; x64) AppleWebKit/537.36 (KHTML, like Gecko) Chrome/107.0.0.0 Safari/537.36 Edg/107.0.1418.56","WebKit","Edge","107.0.1418.56","Windows","10.0","","","39","",""
"9590","You see how an actress is taking a microphone <br> T&uacute ves como una actriz est&aacute agarrando el micr&oacutefono","{""Q0"":3}","trial","6135","survey-likert","33","338044","0.0-5.0-0.13","17","1","2022-11-29 21:24:45","2df368f4e41f066fd1c82c297b4a1108","188.76.93.187","Mozilla/5.0 (Windows NT 10.0; Win64; x64) AppleWebKit/537.36 (KHTML, like Gecko) Chrome/107.0.0.0 Safari/537.36 Edg/107.0.1418.56","WebKit","Edge","107.0.1418.56","Windows","10.0","[0]","","51","3",""
"3948","You drop a bowling ball on an iPhone <br> T&uacute tiras una bola de boliche a un iPhone","{""Q0"":1}","trial","6135","survey-likert","34","341996","0.0-5.0-0.14","17","1","2022-11-29 21:24:45","2df368f4e41f066fd1c82c297b4a1108","188.76.93.187","Mozilla/5.0 (Windows NT 10.0; Win64; x64) AppleWebKit/537.36 (KHTML, like Gecko) Chrome/107.0.0.0 Safari/537.36 Edg/107.0.1418.56","WebKit","Edge","107.0.1418.56","Windows","10.0","[0]","","13","1",""
"5083","You drop a bowling ball on an iPhone <br> T&uacute tiras una bola de boliche a un iPhone","{""Q0"":""Dejas caer una bola de boliche en un iPhone""}","low_rate","6135","survey-text","35","347084","0.0-5.0-1.14-0.14","17","1","2022-11-29 21:24:45","2df368f4e41f066fd1c82c297b4a1108","188.76.93.187","Mozilla/5.0 (Windows NT 10.0; Win64; x64) AppleWebKit/537.36 (KHTML, like Gecko) Chrome/107.0.0.0 Safari/537.36 Edg/107.0.1418.56","WebKit","Edge","107.0.1418.56","Windows","10.0","","","13","",""
"5719","You see how a man is shaving his beard <br> T&uacute ves como un hombre se est&aacute afeitando la barba","{""Q0"":3}","trial","6135","survey-likert","36","352804","0.0-5.0-0.15","17","1","2022-11-29 21:24:45","2df368f4e41f066fd1c82c297b4a1108","188.76.93.187","Mozilla/5.0 (Windows NT 10.0; Win64; x64) AppleWebKit/537.36 (KHTML, like Gecko) Chrome/107.0.0.0 Safari/537.36 Edg/107.0.1418.56","WebKit","Edge","107.0.1418.56","Windows","10.0","[0]","","43","3",""
"4732","You see how a cat is drinking water from a bowl <br> T&uacute ves como un gato est&aacute bebiendo agua de un cuenco","{""Q0"":3}","trial","6135","survey-likert","37","357540","0.0-5.0-0.16","17","1","2022-11-29 21:24:45","2df368f4e41f066fd1c82c297b4a1108","188.76.93.187","Mozilla/5.0 (Windows NT 10.0; Win64; x64) AppleWebKit/537.36 (KHTML, like Gecko) Chrome/107.0.0.0 Safari/537.36 Edg/107.0.1418.56","WebKit","Edge","107.0.1418.56","Windows","10.0","[0]","","28","3",""
"11428","You see how a hairdresser is taking scissors <br> T&uacute ves como una peluquera est&aacute agarrando las tijeras","{""Q0"":3}","trial","6135","survey-likert","38","368973","0.0-5.0-0.17","17","1","2022-11-29 21:24:45","2df368f4e41f066fd1c82c297b4a1108","188.76.93.187","Mozilla/5.0 (Windows NT 10.0; Win64; x64) AppleWebKit/537.36 (KHTML, like Gecko) Chrome/107.0.0.0 Safari/537.36 Edg/107.0.1418.56","WebKit","Edge","107.0.1418.56","Windows","10.0","[0]","","60","3",""
"3284","You see how a postman is driving a car <br> T&uacute ves como un cartero est&aacute conduciendo un coche","{""Q0"":3}","trial","6135","survey-likert","39","372260","0.0-5.0-0.18","17","1","2022-11-29 21:24:45","2df368f4e41f066fd1c82c297b4a1108","188.76.93.187","Mozilla/5.0 (Windows NT 10.0; Win64; x64) AppleWebKit/537.36 (KHTML, like Gecko) Chrome/107.0.0.0 Safari/537.36 Edg/107.0.1418.56","WebKit","Edge","107.0.1418.56","Windows","10.0","[0]","","32","3",""
"2139","You see how a man is playing with a cat <br> T&uacute ves como un hombre est&aacute jugando con un gato","{""Q0"":3}","trial","6135","survey-likert","40","374404","0.0-5.0-0.19","17","1","2022-11-29 21:24:45","2df368f4e41f066fd1c82c297b4a1108","188.76.93.187","Mozilla/5.0 (Windows NT 10.0; Win64; x64) AppleWebKit/537.36 (KHTML, like Gecko) Chrome/107.0.0.0 Safari/537.36 Edg/107.0.1418.56","WebKit","Edge","107.0.1418.56","Windows","10.0","[0]","","67","3",""
"3420","You drop a bowling ball on an egg flan <br> T&uacute tiras una bola de boliche a un flan","{""Q0"":1}","trial","6135","survey-likert","41","377828","0.0-5.0-0.20","17","1","2022-11-29 21:24:45","2df368f4e41f066fd1c82c297b4a1108","188.76.93.187","Mozilla/5.0 (Windows NT 10.0; Win64; x64) AppleWebKit/537.36 (KHTML, like Gecko) Chrome/107.0.0.0 Safari/537.36 Edg/107.0.1418.56","WebKit","Edge","107.0.1418.56","Windows","10.0","[0]","","7","1",""
"8097","You drop a bowling ball on an egg flan <br> T&uacute tiras una bola de boliche a un flan","{""Q0"":""Dejas caer una bola de boliche en un flan""}","low_rate","6135","survey-text","42","385933","0.0-5.0-1.20-0.20","17","1","2022-11-29 21:24:45","2df368f4e41f066fd1c82c297b4a1108","188.76.93.187","Mozilla/5.0 (Windows NT 10.0; Win64; x64) AppleWebKit/537.36 (KHTML, like Gecko) Chrome/107.0.0.0 Safari/537.36 Edg/107.0.1418.56","WebKit","Edge","107.0.1418.56","Windows","10.0","","","7","",""
"2159","You drop a bowling ball on a hat <br> T&uacute tiras una bola de boliche a una gorra","{""Q0"":1}","trial","6135","survey-likert","43","388092","0.0-5.0-0.21","17","1","2022-11-29 21:24:45","2df368f4e41f066fd1c82c297b4a1108","188.76.93.187","Mozilla/5.0 (Windows NT 10.0; Win64; x64) AppleWebKit/537.36 (KHTML, like Gecko) Chrome/107.0.0.0 Safari/537.36 Edg/107.0.1418.56","WebKit","Edge","107.0.1418.56","Windows","10.0","[0]","","10","1",""
"3018","You drop a bowling ball on a hat <br> T&uacute tiras una bola de boliche a una gorra","{""Q0"":""Dejas caer una bola de boliche en una gorra""}","low_rate","6135","survey-text","44","391116","0.0-5.0-1.21-0.21","17","1","2022-11-29 21:24:45","2df368f4e41f066fd1c82c297b4a1108","188.76.93.187","Mozilla/5.0 (Windows NT 10.0; Win64; x64) AppleWebKit/537.36 (KHTML, like Gecko) Chrome/107.0.0.0 Safari/537.36 Edg/107.0.1418.56","WebKit","Edge","107.0.1418.56","Windows","10.0","","","10","",""
"1903","You drop a bowling ball on an empty can of beer <br> T&uacute tiras una bola de boliche a una lata de cerveza vac&iacutea","{""Q0"":1}","trial","6135","survey-likert","45","393021","0.0-5.0-0.22","17","1","2022-11-29 21:24:45","2df368f4e41f066fd1c82c297b4a1108","188.76.93.187","Mozilla/5.0 (Windows NT 10.0; Win64; x64) AppleWebKit/537.36 (KHTML, like Gecko) Chrome/107.0.0.0 Safari/537.36 Edg/107.0.1418.56","WebKit","Edge","107.0.1418.56","Windows","10.0","[0]","","3","1",""
"5666","You drop a bowling ball on an empty can of beer <br> T&uacute tiras una bola de boliche a una lata de cerveza vac&iacutea","{""Q0"":""Dejas caer una bola de boliche en una lata de cerveza vacía""}","low_rate","6135","survey-text","46","398692","0.0-5.0-1.22-0.22","17","1","2022-11-29 21:24:45","2df368f4e41f066fd1c82c297b4a1108","188.76.93.187","Mozilla/5.0 (Windows NT 10.0; Win64; x64) AppleWebKit/537.36 (KHTML, like Gecko) Chrome/107.0.0.0 Safari/537.36 Edg/107.0.1418.56","WebKit","Edge","107.0.1418.56","Windows","10.0","","","3","",""
"9391","You see how an astronaut is putting on a space suit <br> T&uacute ves como un astronauta se est&aacute poniendo su traje espacial","{""Q0"":3}","trial","6135","survey-likert","47","408084","0.0-5.0-0.23","17","1","2022-11-29 21:24:45","2df368f4e41f066fd1c82c297b4a1108","188.76.93.187","Mozilla/5.0 (Windows NT 10.0; Win64; x64) AppleWebKit/537.36 (KHTML, like Gecko) Chrome/107.0.0.0 Safari/537.36 Edg/107.0.1418.56","WebKit","Edge","107.0.1418.56","Windows","10.0","[0]","","33","3",""
"23004","You drop a watch on the laptop <br> T&uacute tiras un reloj al port&aacutetil","{""Q0"":1}","trial","6135","survey-likert","48","431093","0.0-5.0-0.24","17","1","2022-11-29 21:24:45","2df368f4e41f066fd1c82c297b4a1108","188.76.93.187","Mozilla/5.0 (Windows NT 10.0; Win64; x64) AppleWebKit/537.36 (KHTML, like Gecko) Chrome/107.0.0.0 Safari/537.36 Edg/107.0.1418.56","WebKit","Edge","107.0.1418.56","Windows","10.0","[0]","","37","1",""
"12786","You drop a watch on the laptop <br> T&uacute tiras un reloj al port&aacutetil","{""Q0"":""Se te cae un reloj en la laptop""}","low_rate","6135","survey-text","49","443885","0.0-5.0-1.24-0.24","17","1","2022-11-29 21:24:45","2df368f4e41f066fd1c82c297b4a1108","188.76.93.187","Mozilla/5.0 (Windows NT 10.0; Win64; x64) AppleWebKit/537.36 (KHTML, like Gecko) Chrome/107.0.0.0 Safari/537.36 Edg/107.0.1418.56","WebKit","Edge","107.0.1418.56","Windows","10.0","","","37","",""
"18607","You see how a butterfly is sitting on a flower <br> T&uacute ves como una mariposa est&aacute reposando en una flor","{""Q0"":3}","trial","6135","survey-likert","50","462493","0.0-5.0-0.25","17","1","2022-11-29 21:24:45","2df368f4e41f066fd1c82c297b4a1108","188.76.93.187","Mozilla/5.0 (Windows NT 10.0; Win64; x64) AppleWebKit/537.36 (KHTML, like Gecko) Chrome/107.0.0.0 Safari/537.36 Edg/107.0.1418.56","WebKit","Edge","107.0.1418.56","Windows","10.0","[0]","","59","3",""
"3011","You see how a horse is chewing hay <br> T&uacute ves como un caballo est&aacute masticando el heno","{""Q0"":3}","trial","6135","survey-likert","51","465509","0.0-5.0-0.26","17","1","2022-11-29 21:24:45","2df368f4e41f066fd1c82c297b4a1108","188.76.93.187","Mozilla/5.0 (Windows NT 10.0; Win64; x64) AppleWebKit/537.36 (KHTML, like Gecko) Chrome/107.0.0.0 Safari/537.36 Edg/107.0.1418.56","WebKit","Edge","107.0.1418.56","Windows","10.0","[0]","","55","3",""
"3739","You see how a puppy is playing with a ball <br> T&uacute ves como un cachorro est&aacute jugando con una pelota","{""Q0"":3}","trial","6135","survey-likert","52","469253","0.0-5.0-0.27","17","1","2022-11-29 21:24:45","2df368f4e41f066fd1c82c297b4a1108","188.76.93.187","Mozilla/5.0 (Windows NT 10.0; Win64; x64) AppleWebKit/537.36 (KHTML, like Gecko) Chrome/107.0.0.0 Safari/537.36 Edg/107.0.1418.56","WebKit","Edge","107.0.1418.56","Windows","10.0","[0]","","34","3",""
"31323","You drop a bowling ball on a piece of sushi <br> T&uacute tiras una bola de boliche a un pedazo de sushi","{""Q0"":1}","trial","6135","survey-likert","53","500581","0.0-5.0-0.28","17","1","2022-11-29 21:24:45","2df368f4e41f066fd1c82c297b4a1108","188.76.93.187","Mozilla/5.0 (Windows NT 10.0; Win64; x64) AppleWebKit/537.36 (KHTML, like Gecko) Chrome/107.0.0.0 Safari/537.36 Edg/107.0.1418.56","WebKit","Edge","107.0.1418.56","Windows","10.0","[0]","","21","1",""
"13443","You drop a bowling ball on a piece of sushi <br> T&uacute tiras una bola de boliche a un pedazo de sushi","{""Q0"":""Se te cae una bola de boliche en un pedazo de sushi""}","low_rate","6135","survey-text","54","514029","0.0-5.0-1.28-0.28","17","1","2022-11-29 21:24:45","2df368f4e41f066fd1c82c297b4a1108","188.76.93.187","Mozilla/5.0 (Windows NT 10.0; Win64; x64) AppleWebKit/537.36 (KHTML, like Gecko) Chrome/107.0.0.0 Safari/537.36 Edg/107.0.1418.56","WebKit","Edge","107.0.1418.56","Windows","10.0","","","21","",""
"3590","You see how a man is boiling potatoes <br> T&uacute ves a un hombre est&aacute hirviendo papas","{""Q0"":3}","trial","6135","survey-likert","55","517621","0.0-5.0-0.29","17","1","2022-11-29 21:24:45","2df368f4e41f066fd1c82c297b4a1108","188.76.93.187","Mozilla/5.0 (Windows NT 10.0; Win64; x64) AppleWebKit/537.36 (KHTML, like Gecko) Chrome/107.0.0.0 Safari/537.36 Edg/107.0.1418.56","WebKit","Edge","107.0.1418.56","Windows","10.0","[0]","","46","3",""
"5259","You drop a bowling ball on a tile <br> T&uacute tiras una bola de boliche a una baldosa","{""Q0"":1}","trial","6135","survey-likert","56","522885","0.0-5.0-0.30","17","1","2022-11-29 21:24:45","2df368f4e41f066fd1c82c297b4a1108","188.76.93.187","Mozilla/5.0 (Windows NT 10.0; Win64; x64) AppleWebKit/537.36 (KHTML, like Gecko) Chrome/107.0.0.0 Safari/537.36 Edg/107.0.1418.56","WebKit","Edge","107.0.1418.56","Windows","10.0","[0]","","22","1",""
"11251","You drop a bowling ball on a tile <br> T&uacute tiras una bola de boliche a una baldosa","{""Q0"":""Se te cae una bola de boliche en una baldosa""}","low_rate","6135","survey-text","57","534140","0.0-5.0-1.30-0.30","17","1","2022-11-29 21:24:45","2df368f4e41f066fd1c82c297b4a1108","188.76.93.187","Mozilla/5.0 (Windows NT 10.0; Win64; x64) AppleWebKit/537.36 (KHTML, like Gecko) Chrome/107.0.0.0 Safari/537.36 Edg/107.0.1418.56","WebKit","Edge","107.0.1418.56","Windows","10.0","","","22","",""
"4646","You see how a mouse is eating cheese <br> T&uacute ves como el rat&oacuten est&aacute comiendo queso","{""Q0"":3}","trial","6135","survey-likert","58","538788","0.0-5.0-0.31","17","1","2022-11-29 21:24:45","2df368f4e41f066fd1c82c297b4a1108","188.76.93.187","Mozilla/5.0 (Windows NT 10.0; Win64; x64) AppleWebKit/537.36 (KHTML, like Gecko) Chrome/107.0.0.0 Safari/537.36 Edg/107.0.1418.56","WebKit","Edge","107.0.1418.56","Windows","10.0","[0]","","56","3",""
"3650","You see how a woman is taking money out of a wallet <br> T&uacute ves como una mujer est&aacute sacando dinero de su billetera","{""Q0"":3}","trial","6135","survey-likert","59","542444","0.0-5.0-0.32","17","1","2022-11-29 21:24:45","2df368f4e41f066fd1c82c297b4a1108","188.76.93.187","Mozilla/5.0 (Windows NT 10.0; Win64; x64) AppleWebKit/537.36 (KHTML, like Gecko) Chrome/107.0.0.0 Safari/537.36 Edg/107.0.1418.56","WebKit","Edge","107.0.1418.56","Windows","10.0","[0]","","44","3",""
"2012","You see how a nurse is taking a syringe <br> T&uacute ves como una enfermera est&aacute agarrando una jeringuilla","{""Q0"":3}","trial","6135","survey-likert","60","544460","0.0-5.0-0.33","17","1","2022-11-29 21:24:45","2df368f4e41f066fd1c82c297b4a1108","188.76.93.187","Mozilla/5.0 (Windows NT 10.0; Win64; x64) AppleWebKit/537.36 (KHTML, like Gecko) Chrome/107.0.0.0 Safari/537.36 Edg/107.0.1418.56","WebKit","Edge","107.0.1418.56","Windows","10.0","[0]","","48","3",""
"3619","You drop a bowling ball on a paper cup <br> T&uacute tiras una bola de boliche a un vaso de papel","{""Q0"":1}","trial","6135","survey-likert","61","548084","0.0-5.0-0.34","17","1","2022-11-29 21:24:45","2df368f4e41f066fd1c82c297b4a1108","188.76.93.187","Mozilla/5.0 (Windows NT 10.0; Win64; x64) AppleWebKit/537.36 (KHTML, like Gecko) Chrome/107.0.0.0 Safari/537.36 Edg/107.0.1418.56","WebKit","Edge","107.0.1418.56","Windows","10.0","[0]","","24","1",""
"6339","You drop a bowling ball on a paper cup <br> T&uacute tiras una bola de boliche a un vaso de papel","{""Q0"":""Se te cae una bola de boliche en un vaso de papel""}","low_rate","6135","survey-text","62","554429","0.0-5.0-1.34-0.34","17","1","2022-11-29 21:24:45","2df368f4e41f066fd1c82c297b4a1108","188.76.93.187","Mozilla/5.0 (Windows NT 10.0; Win64; x64) AppleWebKit/537.36 (KHTML, like Gecko) Chrome/107.0.0.0 Safari/537.36 Edg/107.0.1418.56","WebKit","Edge","107.0.1418.56","Windows","10.0","","","24","",""
"3678","You drop a bowling ball on a wine glass <br> T&uacute tiras una bola de boliche a una copa de vino","{""Q0"":1}","trial","6135","survey-likert","63","558108","0.0-5.0-0.35","17","1","2022-11-29 21:24:45","2df368f4e41f066fd1c82c297b4a1108","188.76.93.187","Mozilla/5.0 (Windows NT 10.0; Win64; x64) AppleWebKit/537.36 (KHTML, like Gecko) Chrome/107.0.0.0 Safari/537.36 Edg/107.0.1418.56","WebKit","Edge","107.0.1418.56","Windows","10.0","[0]","","5","1",""
"4634","You drop a bowling ball on a wine glass <br> T&uacute tiras una bola de boliche a una copa de vino","{""Q0"":""Se te cae una bola de boliche en una copa de vino""}","low_rate","6135","survey-text","64","562748","0.0-5.0-1.35-0.35","17","1","2022-11-29 21:24:45","2df368f4e41f066fd1c82c297b4a1108","188.76.93.187","Mozilla/5.0 (Windows NT 10.0; Win64; x64) AppleWebKit/537.36 (KHTML, like Gecko) Chrome/107.0.0.0 Safari/537.36 Edg/107.0.1418.56","WebKit","Edge","107.0.1418.56","Windows","10.0","","","5","",""
"5399","You see how a musician is playing a guitar <br> T&uacute ves como un m&uacutesico est&aacute tocando la guitarra","{""Q0"":3}","trial","6135","survey-likert","65","568148","0.0-5.0-0.36","17","1","2022-11-29 21:24:45","2df368f4e41f066fd1c82c297b4a1108","188.76.93.187","Mozilla/5.0 (Windows NT 10.0; Win64; x64) AppleWebKit/537.36 (KHTML, like Gecko) Chrome/107.0.0.0 Safari/537.36 Edg/107.0.1418.56","WebKit","Edge","107.0.1418.56","Windows","10.0","[0]","","27","3",""
"5260","You drop a needle on the mouse pad <br> T&uacute tiras una aguja a la alfombrilla para el rat&oacuten","{""Q0"":1}","trial","6135","survey-likert","66","573413","0.0-5.0-0.37","17","1","2022-11-29 21:24:45","2df368f4e41f066fd1c82c297b4a1108","188.76.93.187","Mozilla/5.0 (Windows NT 10.0; Win64; x64) AppleWebKit/537.36 (KHTML, like Gecko) Chrome/107.0.0.0 Safari/537.36 Edg/107.0.1418.56","WebKit","Edge","107.0.1418.56","Windows","10.0","[0]","","42","1",""
"7755","You drop a needle on the mouse pad <br> T&uacute tiras una aguja a la alfombrilla para el rat&oacuten","{""Q0"":""Se te cae una aguja en la alfombrilla para el raton""}","low_rate","6135","survey-text","67","581172","0.0-5.0-1.37-0.37","17","1","2022-11-29 21:24:45","2df368f4e41f066fd1c82c297b4a1108","188.76.93.187","Mozilla/5.0 (Windows NT 10.0; Win64; x64) AppleWebKit/537.36 (KHTML, like Gecko) Chrome/107.0.0.0 Safari/537.36 Edg/107.0.1418.56","WebKit","Edge","107.0.1418.56","Windows","10.0","","","42","",""
"12901","You see how a student is writing on a board <br> T&uacute ves como un estudiante est&aacute escribiendo en la pizarra","{""Q0"":3}","trial","6135","survey-likert","68","594076","0.0-5.0-0.38","17","1","2022-11-29 21:24:45","2df368f4e41f066fd1c82c297b4a1108","188.76.93.187","Mozilla/5.0 (Windows NT 10.0; Win64; x64) AppleWebKit/537.36 (KHTML, like Gecko) Chrome/107.0.0.0 Safari/537.36 Edg/107.0.1418.56","WebKit","Edge","107.0.1418.56","Windows","10.0","[0]","","50","3",""
"12284","You see how a kitten is playing in the sandbox <br> T&uacute ves como un gatito est&aacute jugando en la caja de arena","{""Q0"":3}","trial","6135","survey-likert","69","606365","0.0-5.0-0.39","17","1","2022-11-29 21:24:45","2df368f4e41f066fd1c82c297b4a1108","188.76.93.187","Mozilla/5.0 (Windows NT 10.0; Win64; x64) AppleWebKit/537.36 (KHTML, like Gecko) Chrome/107.0.0.0 Safari/537.36 Edg/107.0.1418.56","WebKit","Edge","107.0.1418.56","Windows","10.0","[0]","","52","3",""
"6315","You drop a bowling ball on a rice cake <br> T&uacute tiras una bola de boliche a una tortita de arroz","{""Q0"":1}","trial","6135","survey-likert","70","612685","0.0-5.0-0.40","17","1","2022-11-29 21:24:45","2df368f4e41f066fd1c82c297b4a1108","188.76.93.187","Mozilla/5.0 (Windows NT 10.0; Win64; x64) AppleWebKit/537.36 (KHTML, like Gecko) Chrome/107.0.0.0 Safari/537.36 Edg/107.0.1418.56","WebKit","Edge","107.0.1418.56","Windows","10.0","[0]","","18","1",""
"7441","You drop a bowling ball on a rice cake <br> T&uacute tiras una bola de boliche a una tortita de arroz","{""Q0"":""Se te cae una bola de boliche en un plato de arroz""}","low_rate","6135","survey-text","71","620132","0.0-5.0-1.40-0.40","17","1","2022-11-29 21:24:45","2df368f4e41f066fd1c82c297b4a1108","188.76.93.187","Mozilla/5.0 (Windows NT 10.0; Win64; x64) AppleWebKit/537.36 (KHTML, like Gecko) Chrome/107.0.0.0 Safari/537.36 Edg/107.0.1418.56","WebKit","Edge","107.0.1418.56","Windows","10.0","","","18","",""
"4191","You see how an elephant is eating a watermelon <br> T&uacute ves como un elefante est&aacute comiendo una sand&iacutea","{""Q0"":3}","trial","6135","survey-likert","72","624325","0.0-5.0-0.41","17","1","2022-11-29 21:24:45","2df368f4e41f066fd1c82c297b4a1108","188.76.93.187","Mozilla/5.0 (Windows NT 10.0; Win64; x64) AppleWebKit/537.36 (KHTML, like Gecko) Chrome/107.0.0.0 Safari/537.36 Edg/107.0.1418.56","WebKit","Edge","107.0.1418.56","Windows","10.0","[0]","","31","3",""
"10443","You drop a bowling ball on an iPAD <br> T&uacute tiras una bola de boliche a un iPad","{""Q0"":1}","trial","6135","survey-likert","73","634773","0.0-5.0-0.42","17","1","2022-11-29 21:24:45","2df368f4e41f066fd1c82c297b4a1108","188.76.93.187","Mozilla/5.0 (Windows NT 10.0; Win64; x64) AppleWebKit/537.36 (KHTML, like Gecko) Chrome/107.0.0.0 Safari/537.36 Edg/107.0.1418.56","WebKit","Edge","107.0.1418.56","Windows","10.0","[0]","","12","1",""
"4698","You drop a bowling ball on an iPAD <br> T&uacute tiras una bola de boliche a un iPad","{""Q0"":""Se te cae una bola de boliche en un iPad""}","low_rate","6135","survey-text","74","639477","0.0-5.0-1.42-0.42","17","1","2022-11-29 21:24:45","2df368f4e41f066fd1c82c297b4a1108","188.76.93.187","Mozilla/5.0 (Windows NT 10.0; Win64; x64) AppleWebKit/537.36 (KHTML, like Gecko) Chrome/107.0.0.0 Safari/537.36 Edg/107.0.1418.56","WebKit","Edge","107.0.1418.56","Windows","10.0","","","12","",""
"80486","You drop a bowling ball on a chocolate muffin <br> T&uacute tiras una bola de boliche a una magdalena de chocolate","{""Q0"":1}","trial","6135","survey-likert","75","719965","0.0-5.0-0.43","17","1","2022-11-29 21:24:45","2df368f4e41f066fd1c82c297b4a1108","188.76.93.187","Mozilla/5.0 (Windows NT 10.0; Win64; x64) AppleWebKit/537.36 (KHTML, like Gecko) Chrome/107.0.0.0 Safari/537.36 Edg/107.0.1418.56","WebKit","Edge","107.0.1418.56","Windows","10.0","[0]","","16","1",""
"6138","You drop a bowling ball on a chocolate muffin <br> T&uacute tiras una bola de boliche a una magdalena de chocolate","{""Q0"":""Se te cae una bola de boliche en una magdalena de chocolate""}","low_rate","6135","survey-text","76","726108","0.0-5.0-1.43-0.43","17","1","2022-11-29 21:24:45","2df368f4e41f066fd1c82c297b4a1108","188.76.93.187","Mozilla/5.0 (Windows NT 10.0; Win64; x64) AppleWebKit/537.36 (KHTML, like Gecko) Chrome/107.0.0.0 Safari/537.36 Edg/107.0.1418.56","WebKit","Edge","107.0.1418.56","Windows","10.0","","","16","",""
"4758","You see how a teenage girl is playing the piano <br> T&uacute ves como una ni&ntildea adolescente est&aacute tocando el piano","{""Q0"":3}","trial","6135","survey-likert","77","730868","0.0-5.0-0.44","17","1","2022-11-29 21:24:45","2df368f4e41f066fd1c82c297b4a1108","188.76.93.187","Mozilla/5.0 (Windows NT 10.0; Win64; x64) AppleWebKit/537.36 (KHTML, like Gecko) Chrome/107.0.0.0 Safari/537.36 Edg/107.0.1418.56","WebKit","Edge","107.0.1418.56","Windows","10.0","[0]","","54","3",""
"3819","You drop a pencil on the shoe <br> T&uacute tiras un l&aacutepiz al zapato","{""Q0"":1}","trial","6135","survey-likert","78","734693","0.0-5.0-0.45","17","1","2022-11-29 21:24:45","2df368f4e41f066fd1c82c297b4a1108","188.76.93.187","Mozilla/5.0 (Windows NT 10.0; Win64; x64) AppleWebKit/537.36 (KHTML, like Gecko) Chrome/107.0.0.0 Safari/537.36 Edg/107.0.1418.56","WebKit","Edge","107.0.1418.56","Windows","10.0","[0]","","40","1",""
"10403","You drop a pencil on the shoe <br> T&uacute tiras un l&aacutepiz al zapato","{""Q0"":""Se te cae un lapiz en el zapato""}","low_rate","6135","survey-text","79","745101","0.0-5.0-1.45-0.45","17","1","2022-11-29 21:24:45","2df368f4e41f066fd1c82c297b4a1108","188.76.93.187","Mozilla/5.0 (Windows NT 10.0; Win64; x64) AppleWebKit/537.36 (KHTML, like Gecko) Chrome/107.0.0.0 Safari/537.36 Edg/107.0.1418.56","WebKit","Edge","107.0.1418.56","Windows","10.0","","","40","",""
"7846","You see how a giraffe is playing with a zebra <br> T&uacute ves como una jirafa est&aacute jugando con una cebra","{""Q0"":3}","trial","6135","survey-likert","80","752949","0.0-5.0-0.46","17","1","2022-11-29 21:24:45","2df368f4e41f066fd1c82c297b4a1108","188.76.93.187","Mozilla/5.0 (Windows NT 10.0; Win64; x64) AppleWebKit/537.36 (KHTML, like Gecko) Chrome/107.0.0.0 Safari/537.36 Edg/107.0.1418.56","WebKit","Edge","107.0.1418.56","Windows","10.0","[0]","","65","3",""
"3186","You see how a pilot is reading a book <br> T&uacute ves como un piloto est&aacute leyendo un libro","{""Q0"":3}","trial","6135","survey-likert","81","756141","0.0-5.0-0.47","17","1","2022-11-29 21:24:45","2df368f4e41f066fd1c82c297b4a1108","188.76.93.187","Mozilla/5.0 (Windows NT 10.0; Win64; x64) AppleWebKit/537.36 (KHTML, like Gecko) Chrome/107.0.0.0 Safari/537.36 Edg/107.0.1418.56","WebKit","Edge","107.0.1418.56","Windows","10.0","[0]","","61","3",""
"15531","You see how a president is writing in the notebook <br> T&uacute ves como un presidente est&aacute escribiendo en la libreta","{""Q0"":3}","trial","6135","survey-likert","82","771676","0.0-5.0-0.48","17","1","2022-11-29 21:24:45","2df368f4e41f066fd1c82c297b4a1108","188.76.93.187","Mozilla/5.0 (Windows NT 10.0; Win64; x64) AppleWebKit/537.36 (KHTML, like Gecko) Chrome/107.0.0.0 Safari/537.36 Edg/107.0.1418.56","WebKit","Edge","107.0.1418.56","Windows","10.0","[0]","","63","3",""
"10107","You drop a cushion on the magazine <br> T&uacute tiras un coj&iacuten a la revista","{""Q0"":3}","trial","6135","survey-likert","83","781789","0.0-5.0-0.49","17","1","2022-11-29 21:24:45","2df368f4e41f066fd1c82c297b4a1108","188.76.93.187","Mozilla/5.0 (Windows NT 10.0; Win64; x64) AppleWebKit/537.36 (KHTML, like Gecko) Chrome/107.0.0.0 Safari/537.36 Edg/107.0.1418.56","WebKit","Edge","107.0.1418.56","Windows","10.0","[0]","","38","3",""
"2443","You drop a bowling ball on a blackberry <br> T&uacute tiras una bola de boliche a una mora","{""Q0"":1}","trial","6135","survey-likert","84","784238","0.0-5.0-0.50","17","1","2022-11-29 21:24:45","2df368f4e41f066fd1c82c297b4a1108","188.76.93.187","Mozilla/5.0 (Windows NT 10.0; Win64; x64) AppleWebKit/537.36 (KHTML, like Gecko) Chrome/107.0.0.0 Safari/537.36 Edg/107.0.1418.56","WebKit","Edge","107.0.1418.56","Windows","10.0","[0]","","8","1",""
"4506","You drop a bowling ball on a blackberry <br> T&uacute tiras una bola de boliche a una mora","{""Q0"":""Se te cae una bola de boliche en un blackberry""}","low_rate","6135","survey-text","85","788749","0.0-5.0-1.50-0.50","17","1","2022-11-29 21:24:45","2df368f4e41f066fd1c82c297b4a1108","188.76.93.187","Mozilla/5.0 (Windows NT 10.0; Win64; x64) AppleWebKit/537.36 (KHTML, like Gecko) Chrome/107.0.0.0 Safari/537.36 Edg/107.0.1418.56","WebKit","Edge","107.0.1418.56","Windows","10.0","","","8","",""
"3045","You see how a police officer is talking on the phone <br> T&uacute ves como un polic&iacutea est&aacute hablando por el tel&eacutefono","{""Q0"":3}","trial","6135","survey-likert","86","791797","0.0-5.0-0.51","17","1","2022-11-29 21:24:45","2df368f4e41f066fd1c82c297b4a1108","188.76.93.187","Mozilla/5.0 (Windows NT 10.0; Win64; x64) AppleWebKit/537.36 (KHTML, like Gecko) Chrome/107.0.0.0 Safari/537.36 Edg/107.0.1418.56","WebKit","Edge","107.0.1418.56","Windows","10.0","[0]","","62","3",""
"8386","You see how an old man is hammering a nail <br> T&uacute ves como un hombre anciano est&aacute martillando un clavo","{""Q0"":3}","trial","6135","survey-likert","87","800189","0.0-5.0-0.52","17","1","2022-11-29 21:24:45","2df368f4e41f066fd1c82c297b4a1108","188.76.93.187","Mozilla/5.0 (Windows NT 10.0; Win64; x64) AppleWebKit/537.36 (KHTML, like Gecko) Chrome/107.0.0.0 Safari/537.36 Edg/107.0.1418.56","WebKit","Edge","107.0.1418.56","Windows","10.0","[0]","","29","3",""
"9883","You drop a fork on the plate <br> T&uacute tiras un tenedor al plato","{""Q0"":1}","trial","6135","survey-likert","88","810077","0.0-5.0-0.53","17","1","2022-11-29 21:24:45","2df368f4e41f066fd1c82c297b4a1108","188.76.93.187","Mozilla/5.0 (Windows NT 10.0; Win64; x64) AppleWebKit/537.36 (KHTML, like Gecko) Chrome/107.0.0.0 Safari/537.36 Edg/107.0.1418.56","WebKit","Edge","107.0.1418.56","Windows","10.0","[0]","","26","1",""
"6146","You drop a fork on the plate <br> T&uacute tiras un tenedor al plato","{""Q0"":""Se te cae un tenedor en el plato""}","low_rate","6135","survey-text","89","816229","0.0-5.0-1.53-0.53","17","1","2022-11-29 21:24:45","2df368f4e41f066fd1c82c297b4a1108","188.76.93.187","Mozilla/5.0 (Windows NT 10.0; Win64; x64) AppleWebKit/537.36 (KHTML, like Gecko) Chrome/107.0.0.0 Safari/537.36 Edg/107.0.1418.56","WebKit","Edge","107.0.1418.56","Windows","10.0","","","26","",""
"2813","You drop a bowling ball on a piece of cake <br> T&uacute tiras una bola de boliche a un trozo de pastel","{""Q0"":1}","trial","6135","survey-likert","90","819045","0.0-5.0-0.54","17","1","2022-11-29 21:24:45","2df368f4e41f066fd1c82c297b4a1108","188.76.93.187","Mozilla/5.0 (Windows NT 10.0; Win64; x64) AppleWebKit/537.36 (KHTML, like Gecko) Chrome/107.0.0.0 Safari/537.36 Edg/107.0.1418.56","WebKit","Edge","107.0.1418.56","Windows","10.0","[0]","","2","1",""
"4673","You drop a bowling ball on a piece of cake <br> T&uacute tiras una bola de boliche a un trozo de pastel","{""Q0"":""Se te cae una bola de boliche en un trozo de tarta""}","low_rate","6135","survey-text","91","823725","0.0-5.0-1.54-0.54","17","1","2022-11-29 21:24:45","2df368f4e41f066fd1c82c297b4a1108","188.76.93.187","Mozilla/5.0 (Windows NT 10.0; Win64; x64) AppleWebKit/537.36 (KHTML, like Gecko) Chrome/107.0.0.0 Safari/537.36 Edg/107.0.1418.56","WebKit","Edge","107.0.1418.56","Windows","10.0","","","2","",""
"6494","You see how a doctor is taking a stethoscope <br> T&uacute ves como un doctor est&aacute agarrando un estetoscopio","{""Q0"":3}","trial","6135","survey-likert","92","830221","0.0-5.0-0.55","17","1","2022-11-29 21:24:45","2df368f4e41f066fd1c82c297b4a1108","188.76.93.187","Mozilla/5.0 (Windows NT 10.0; Win64; x64) AppleWebKit/537.36 (KHTML, like Gecko) Chrome/107.0.0.0 Safari/537.36 Edg/107.0.1418.56","WebKit","Edge","107.0.1418.56","Windows","10.0","[0]","","49","3",""
"2059","You see how a photographer is taking a photo of a lion <br> T&uacute ves como un fot&oacutegrafo est&aacute tomando una foto de un le&oacuten","{""Q0"":3}","trial","6135","survey-likert","93","832285","0.0-5.0-0.56","17","1","2022-11-29 21:24:45","2df368f4e41f066fd1c82c297b4a1108","188.76.93.187","Mozilla/5.0 (Windows NT 10.0; Win64; x64) AppleWebKit/537.36 (KHTML, like Gecko) Chrome/107.0.0.0 Safari/537.36 Edg/107.0.1418.56","WebKit","Edge","107.0.1418.56","Windows","10.0","[0]","","72","3",""
"3851","You drop a toothbrush on the sponge <br> T&uacute tiras un cepillo de dientes en la esponja","{""Q0"":1}","trial","6135","survey-likert","94","836140","0.0-5.0-0.57","17","1","2022-11-29 21:24:45","2df368f4e41f066fd1c82c297b4a1108","188.76.93.187","Mozilla/5.0 (Windows NT 10.0; Win64; x64) AppleWebKit/537.36 (KHTML, like Gecko) Chrome/107.0.0.0 Safari/537.36 Edg/107.0.1418.56","WebKit","Edge","107.0.1418.56","Windows","10.0","[0]","","25","1",""
"6938","You drop a toothbrush on the sponge <br> T&uacute tiras un cepillo de dientes en la esponja","{""Q0"":""Se te cae un cepillo de dientes en la esponja""}","low_rate","6135","survey-text","95","843084","0.0-5.0-1.57-0.57","17","1","2022-11-29 21:24:45","2df368f4e41f066fd1c82c297b4a1108","188.76.93.187","Mozilla/5.0 (Windows NT 10.0; Win64; x64) AppleWebKit/537.36 (KHTML, like Gecko) Chrome/107.0.0.0 Safari/537.36 Edg/107.0.1418.56","WebKit","Edge","107.0.1418.56","Windows","10.0","","","25","",""
"3277","You drop a bowling ball on a porcelain figure <br> T&uacute tiras una bola de boliche a una figura de porcelana","{""Q0"":1}","trial","6135","survey-likert","96","846364","0.0-5.0-0.58","17","1","2022-11-29 21:24:45","2df368f4e41f066fd1c82c297b4a1108","188.76.93.187","Mozilla/5.0 (Windows NT 10.0; Win64; x64) AppleWebKit/537.36 (KHTML, like Gecko) Chrome/107.0.0.0 Safari/537.36 Edg/107.0.1418.56","WebKit","Edge","107.0.1418.56","Windows","10.0","[0]","","1","1",""
"4450","You drop a bowling ball on a porcelain figure <br> T&uacute tiras una bola de boliche a una figura de porcelana","{""Q0"":""Se te cae una bola de boliche en una figura de porcelana""}","low_rate","6135","survey-text","97","850820","0.0-5.0-1.58-0.58","17","1","2022-11-29 21:24:45","2df368f4e41f066fd1c82c297b4a1108","188.76.93.187","Mozilla/5.0 (Windows NT 10.0; Win64; x64) AppleWebKit/537.36 (KHTML, like Gecko) Chrome/107.0.0.0 Safari/537.36 Edg/107.0.1418.56","WebKit","Edge","107.0.1418.56","Windows","10.0","","","1","",""
"6015","You drop a thermometer on the box <br> T&uacute tiras un term&oacutemetro a la caja","{""Q0"":1}","trial","6135","survey-likert","98","856838","0.0-5.0-0.59","17","1","2022-11-29 21:24:45","2df368f4e41f066fd1c82c297b4a1108","188.76.93.187","Mozilla/5.0 (Windows NT 10.0; Win64; x64) AppleWebKit/537.36 (KHTML, like Gecko) Chrome/107.0.0.0 Safari/537.36 Edg/107.0.1418.56","WebKit","Edge","107.0.1418.56","Windows","10.0","[0]","","70","1",""
"4782","You drop a thermometer on the box <br> T&uacute tiras un term&oacutemetro a la caja","{""Q0"":""Se te cae un termómetro en la caja""}","low_rate","6135","survey-text","99","861628","0.0-5.0-1.59-0.59","17","1","2022-11-29 21:24:45","2df368f4e41f066fd1c82c297b4a1108","188.76.93.187","Mozilla/5.0 (Windows NT 10.0; Win64; x64) AppleWebKit/537.36 (KHTML, like Gecko) Chrome/107.0.0.0 Safari/537.36 Edg/107.0.1418.56","WebKit","Edge","107.0.1418.56","Windows","10.0","","","70","",""
"3397","You drop a ring on the newspaper <br> T&uacute tiras un anillo al peri&oacutedico","{""Q0"":1}","trial","6135","survey-likert","100","865029","0.0-5.0-0.60","17","1","2022-11-29 21:24:45","2df368f4e41f066fd1c82c297b4a1108","188.76.93.187","Mozilla/5.0 (Windows NT 10.0; Win64; x64) AppleWebKit/537.36 (KHTML, like Gecko) Chrome/107.0.0.0 Safari/537.36 Edg/107.0.1418.56","WebKit","Edge","107.0.1418.56","Windows","10.0","[0]","","41","1",""
"5457","You drop a ring on the newspaper <br> T&uacute tiras un anillo al peri&oacutedico","{""Q0"":""Se te cae un anillo en el periódico""}","low_rate","6135","survey-text","101","870492","0.0-5.0-1.60-0.60","17","1","2022-11-29 21:24:45","2df368f4e41f066fd1c82c297b4a1108","188.76.93.187","Mozilla/5.0 (Windows NT 10.0; Win64; x64) AppleWebKit/537.36 (KHTML, like Gecko) Chrome/107.0.0.0 Safari/537.36 Edg/107.0.1418.56","WebKit","Edge","107.0.1418.56","Windows","10.0","","","41","",""
"1933","You drop a keyboard on the bed <br> T&uacute tiras un teclado a la cama","{""Q0"":1}","trial","6135","survey-likert","102","872428","0.0-5.0-0.61","17","1","2022-11-29 21:24:45","2df368f4e41f066fd1c82c297b4a1108","188.76.93.187","Mozilla/5.0 (Windows NT 10.0; Win64; x64) AppleWebKit/537.36 (KHTML, like Gecko) Chrome/107.0.0.0 Safari/537.36 Edg/107.0.1418.56","WebKit","Edge","107.0.1418.56","Windows","10.0","[0]","","36","1",""
"4106","You drop a keyboard on the bed <br> T&uacute tiras un teclado a la cama","{""Q0"":""Se te cae un teclado en la cama""}","low_rate","6135","survey-text","103","876540","0.0-5.0-1.61-0.61","17","1","2022-11-29 21:24:45","2df368f4e41f066fd1c82c297b4a1108","188.76.93.187","Mozilla/5.0 (Windows NT 10.0; Win64; x64) AppleWebKit/537.36 (KHTML, like Gecko) Chrome/107.0.0.0 Safari/537.36 Edg/107.0.1418.56","WebKit","Edge","107.0.1418.56","Windows","10.0","","","36","",""
"25134","You see how a parrot is eating an apple <br> T&uacute ves como un loro est&aacute comiendo una manzana","{""Q0"":3}","trial","6135","survey-likert","104","901677","0.0-5.0-0.62","17","1","2022-11-29 21:24:45","2df368f4e41f066fd1c82c297b4a1108","188.76.93.187","Mozilla/5.0 (Windows NT 10.0; Win64; x64) AppleWebKit/537.36 (KHTML, like Gecko) Chrome/107.0.0.0 Safari/537.36 Edg/107.0.1418.56","WebKit","Edge","107.0.1418.56","Windows","10.0","[0]","","58","3",""
"2946","You drop a bowling ball on an egg <br> T&uacute tiras una bola de boliche a un huevo","{""Q0"":1}","trial","6135","survey-likert","105","904629","0.0-5.0-0.63","17","1","2022-11-29 21:24:45","2df368f4e41f066fd1c82c297b4a1108","188.76.93.187","Mozilla/5.0 (Windows NT 10.0; Win64; x64) AppleWebKit/537.36 (KHTML, like Gecko) Chrome/107.0.0.0 Safari/537.36 Edg/107.0.1418.56","WebKit","Edge","107.0.1418.56","Windows","10.0","[0]","","6","1",""
"4490","You drop a bowling ball on an egg <br> T&uacute tiras una bola de boliche a un huevo","{""Q0"":""Se te cae una bola de boliche en un huevo""}","low_rate","6135","survey-text","106","909125","0.0-5.0-1.63-0.63","17","1","2022-11-29 21:24:45","2df368f4e41f066fd1c82c297b4a1108","188.76.93.187","Mozilla/5.0 (Windows NT 10.0; Win64; x64) AppleWebKit/537.36 (KHTML, like Gecko) Chrome/107.0.0.0 Safari/537.36 Edg/107.0.1418.56","WebKit","Edge","107.0.1418.56","Windows","10.0","","","6","",""
"1805","You see how a panda is resting on a tree <br> T&uacute ves como un panda est&aacute descansando en un &aacuterbol","{""Q0"":3}","trial","6135","survey-likert","107","910933","0.0-5.0-0.64","17","1","2022-11-29 21:24:45","2df368f4e41f066fd1c82c297b4a1108","188.76.93.187","Mozilla/5.0 (Windows NT 10.0; Win64; x64) AppleWebKit/537.36 (KHTML, like Gecko) Chrome/107.0.0.0 Safari/537.36 Edg/107.0.1418.56","WebKit","Edge","107.0.1418.56","Windows","10.0","[0]","","57","3",""
"1682","You see how an owl is sitting on the branch <br> T&uacute ves como un b&uacuteho est&aacute reposando en una rama","{""Q0"":3}","trial","6135","survey-likert","108","912621","0.0-5.0-0.65","17","1","2022-11-29 21:24:45","2df368f4e41f066fd1c82c297b4a1108","188.76.93.187","Mozilla/5.0 (Windows NT 10.0; Win64; x64) AppleWebKit/537.36 (KHTML, like Gecko) Chrome/107.0.0.0 Safari/537.36 Edg/107.0.1418.56","WebKit","Edge","107.0.1418.56","Windows","10.0","[0]","","69","3",""
"1754","You see how a thief is stealing a wallet <br> T&uacute ves como un ladr&oacuten est&aacute robando una billetera","{""Q0"":3}","trial","6135","survey-likert","109","914381","0.0-5.0-0.66","17","1","2022-11-29 21:24:45","2df368f4e41f066fd1c82c297b4a1108","188.76.93.187","Mozilla/5.0 (Windows NT 10.0; Win64; x64) AppleWebKit/537.36 (KHTML, like Gecko) Chrome/107.0.0.0 Safari/537.36 Edg/107.0.1418.56","WebKit","Edge","107.0.1418.56","Windows","10.0","[0]","","68","3",""
"3531","You drop a bowling ball on a tomato <br> T&uacute tiras una bola de boliche a un tomate","{""Q0"":1}","trial","6135","survey-likert","110","917917","0.0-5.0-0.67","17","1","2022-11-29 21:24:45","2df368f4e41f066fd1c82c297b4a1108","188.76.93.187","Mozilla/5.0 (Windows NT 10.0; Win64; x64) AppleWebKit/537.36 (KHTML, like Gecko) Chrome/107.0.0.0 Safari/537.36 Edg/107.0.1418.56","WebKit","Edge","107.0.1418.56","Windows","10.0","[0]","","23","1",""
"2930","You drop a bowling ball on a tomato <br> T&uacute tiras una bola de boliche a un tomate","{""Q0"":""Se te cae una bola de boliche en un tomate""}","low_rate","6135","survey-text","111","920853","0.0-5.0-1.67-0.67","17","1","2022-11-29 21:24:45","2df368f4e41f066fd1c82c297b4a1108","188.76.93.187","Mozilla/5.0 (Windows NT 10.0; Win64; x64) AppleWebKit/537.36 (KHTML, like Gecko) Chrome/107.0.0.0 Safari/537.36 Edg/107.0.1418.56","WebKit","Edge","107.0.1418.56","Windows","10.0","","","23","",""
"2262","You drop a bowling ball on a cracker <br> T&uacute tiras una bola de boliche a una galleta","{""Q0"":1}","trial","6135","survey-likert","112","923117","0.0-5.0-0.68","17","1","2022-11-29 21:24:45","2df368f4e41f066fd1c82c297b4a1108","188.76.93.187","Mozilla/5.0 (Windows NT 10.0; Win64; x64) AppleWebKit/537.36 (KHTML, like Gecko) Chrome/107.0.0.0 Safari/537.36 Edg/107.0.1418.56","WebKit","Edge","107.0.1418.56","Windows","10.0","[0]","","4","1",""
"8210","You drop a bowling ball on a cracker <br> T&uacute tiras una bola de boliche a una galleta","{""Q0"":""Se te cae una bola de boliche en una galleta""}","low_rate","6135","survey-text","113","931333","0.0-5.0-1.68-0.68","17","1","2022-11-29 21:24:45","2df368f4e41f066fd1c82c297b4a1108","188.76.93.187","Mozilla/5.0 (Windows NT 10.0; Win64; x64) AppleWebKit/537.36 (KHTML, like Gecko) Chrome/107.0.0.0 Safari/537.36 Edg/107.0.1418.56","WebKit","Edge","107.0.1418.56","Windows","10.0","","","4","",""
"2414","You drop a towel on the TV <br> T&uacute tiras una toalla a la televisi&oacuten","{""Q0"":1}","trial","6135","survey-likert","114","933749","0.0-5.0-0.69","17","1","2022-11-29 21:24:45","2df368f4e41f066fd1c82c297b4a1108","188.76.93.187","Mozilla/5.0 (Windows NT 10.0; Win64; x64) AppleWebKit/537.36 (KHTML, like Gecko) Chrome/107.0.0.0 Safari/537.36 Edg/107.0.1418.56","WebKit","Edge","107.0.1418.56","Windows","10.0","[0]","","53","1",""
"5906","You drop a towel on the TV <br> T&uacute tiras una toalla a la televisi&oacuten","{""Q0"":""Se te cae una toalla en la TV""}","low_rate","6135","survey-text","115","939661","0.0-5.0-1.69-0.69","17","1","2022-11-29 21:24:45","2df368f4e41f066fd1c82c297b4a1108","188.76.93.187","Mozilla/5.0 (Windows NT 10.0; Win64; x64) AppleWebKit/537.36 (KHTML, like Gecko) Chrome/107.0.0.0 Safari/537.36 Edg/107.0.1418.56","WebKit","Edge","107.0.1418.56","Windows","10.0","","","53","",""
"1957","You drop a bowling ball on a mirror <br> T&uacute tiras una bola de boliche a un espejo","{""Q0"":1}","trial","6135","survey-likert","116","941621","0.0-5.0-0.70","17","1","2022-11-29 21:24:45","2df368f4e41f066fd1c82c297b4a1108","188.76.93.187","Mozilla/5.0 (Windows NT 10.0; Win64; x64) AppleWebKit/537.36 (KHTML, like Gecko) Chrome/107.0.0.0 Safari/537.36 Edg/107.0.1418.56","WebKit","Edge","107.0.1418.56","Windows","10.0","[0]","","15","1",""
"4185","You drop a bowling ball on a mirror <br> T&uacute tiras una bola de boliche a un espejo","{""Q0"":""Se te cae una bola de boliche en un espejo""}","low_rate","6135","survey-text","117","945813","0.0-5.0-1.70-0.70","17","1","2022-11-29 21:24:45","2df368f4e41f066fd1c82c297b4a1108","188.76.93.187","Mozilla/5.0 (Windows NT 10.0; Win64; x64) AppleWebKit/537.36 (KHTML, like Gecko) Chrome/107.0.0.0 Safari/537.36 Edg/107.0.1418.56","WebKit","Edge","107.0.1418.56","Windows","10.0","","","15","",""
"1766","You drop a bowling ball on glasses <br> T&uacute tiras una bola de boliche a unas gafas","{""Q0"":1}","trial","6135","survey-likert","118","947581","0.0-5.0-0.71","17","1","2022-11-29 21:24:45","2df368f4e41f066fd1c82c297b4a1108","188.76.93.187","Mozilla/5.0 (Windows NT 10.0; Win64; x64) AppleWebKit/537.36 (KHTML, like Gecko) Chrome/107.0.0.0 Safari/537.36 Edg/107.0.1418.56","WebKit","Edge","107.0.1418.56","Windows","10.0","[0]","","9","1",""
"2778","You drop a bowling ball on glasses <br> T&uacute tiras una bola de boliche a unas gafas","{""Q0"":""Se te cae una bola de boliche en unas gafas""}","low_rate","6135","survey-text","119","950365","0.0-5.0-1.71-0.71","17","1","2022-11-29 21:24:45","2df368f4e41f066fd1c82c297b4a1108","188.76.93.187","Mozilla/5.0 (Windows NT 10.0; Win64; x64) AppleWebKit/537.36 (KHTML, like Gecko) Chrome/107.0.0.0 Safari/537.36 Edg/107.0.1418.56","WebKit","Edge","107.0.1418.56","Windows","10.0","","","9","",""
"2909","
    <p style=""font-size:20px;""> You have completed the experiment portion! </p>
    <p style=""font-size:20px;""> Before you are done, we would like you to answer some basic demographic questions. </p>
    <p style=""font-size:20px;""> Note that your answers to these questions will not affect your compensation/credit. </p>
    <p style=""font-size:20px;""> Click the button below to continue.</p>
    ","0","demo","6135","html-button-response","120","953277","0.0-6.0","17","1","2022-11-29 21:24:45","2df368f4e41f066fd1c82c297b4a1108","188.76.93.187","Mozilla/5.0 (Windows NT 10.0; Win64; x64) AppleWebKit/537.36 (KHTML, like Gecko) Chrome/107.0.0.0 Safari/537.36 Edg/107.0.1418.56","WebKit","Edge","107.0.1418.56","Windows","10.0","","","","",""
"11692","","{""Age"":""20"",""Gender"":""Female"",""Education"":""12""}","demo","6135","survey-text","121","964973","0.0-7.0-0.0","17","1","2022-11-29 21:24:45","2df368f4e41f066fd1c82c297b4a1108","188.76.93.187","Mozilla/5.0 (Windows NT 10.0; Win64; x64) AppleWebKit/537.36 (KHTML, like Gecko) Chrome/107.0.0.0 Safari/537.36 Edg/107.0.1418.56","WebKit","Edge","107.0.1418.56","Windows","10.0","","","","",""
"6201","","{""Race"":[""White/Caucasian""]}","demo","6135","survey-multi-select","122","971181","0.0-7.0-1.0","17","1","2022-11-29 21:24:45","2df368f4e41f066fd1c82c297b4a1108","188.76.93.187","Mozilla/5.0 (Windows NT 10.0; Win64; x64) AppleWebKit/537.36 (KHTML, like Gecko) Chrome/107.0.0.0 Safari/537.36 Edg/107.0.1418.56","WebKit","Edge","107.0.1418.56","Windows","10.0","[0]","","","",""
"8978","","{""Latino"":""Yes"",""Alert"":""Evening""}","demo","6135","survey-multi-choice","123","980165","0.0-7.0-2.0","17","1","2022-11-29 21:24:45","2df368f4e41f066fd1c82c297b4a1108","188.76.93.187","Mozilla/5.0 (Windows NT 10.0; Win64; x64) AppleWebKit/537.36 (KHTML, like Gecko) Chrome/107.0.0.0 Safari/537.36 Edg/107.0.1418.56","WebKit","Edge","107.0.1418.56","Windows","10.0","[0,1]","","","",""
"5770","","{""Q0"":""No""}","demo","6135","survey-text","124","985941","0.0-7.0-3.0","17","1","2022-11-29 21:24:45","2df368f4e41f066fd1c82c297b4a1108","188.76.93.187","Mozilla/5.0 (Windows NT 10.0; Win64; x64) AppleWebKit/537.36 (KHTML, like Gecko) Chrome/107.0.0.0 Safari/537.36 Edg/107.0.1418.56","WebKit","Edge","107.0.1418.56","Windows","10.0","","","","",""
"16381","<p>Thank you for participating! </p><strong>Your completion code is: CXEJB7NH. Please copy-paste this code and submit it on Prolific.</strong><p>Click <a href=""https://drive.google.com/file/d/1c70cdHFlc0AaR6RujLWLJwWkv1RbHQJY/view?usp=sharing"" target=""_blank"" rel=""noopener noreferrer"">here</a> to access the debriefing form and know more about our research. <p> Please click the button below to finish the experiment and save your data.</p> <p> IMPORTANT: Please <strong>do not leave this page </strong> without clicking the button below.</p> <p> You may close the tab/window after you click the button below.","0","","","html-button-response","125","1002325","0.0-8.0","17","1","2022-11-29 21:24:45","2df368f4e41f066fd1c82c297b4a1108","188.76.93.187","Mozilla/5.0 (Windows NT 10.0; Win64; x64) AppleWebKit/537.36 (KHTML, like Gecko) Chrome/107.0.0.0 Safari/537.36 Edg/107.0.1418.56","WebKit","Edge","107.0.1418.56","Windows","10.0","","","","",""
