"rt","stimulus","response","typeoftrial","subject","trial_type","trial_index","time_elapsed","internal_node_id","run_id","condition","recorded_at","source_code_version","ip","user_agent","device","browser","browser_version","platform","platform_version","question_order","practice_rating","sentence_num","rating","Experiment"
"184782","
        <p style=""font-size:20px;""> Welcome! Thank you for your interest in our study. </p>
        <p style=""font-size:20px;""> This study is being conducted by researchers at Bowdoin College.</p>
        <p style=""font-size:20px;""> In this experiment, you will be asked to rate the accuracy of English and Spanish translations.</p>
        <p style=""font-size:20px;""> The entire experiment should not last more than 20 minutes. You will be paid $3 USD for your participation. </p>
        <p style=""font-size:20px;""> Please click <a href = ""https://drive.google.com/file/d/1L92a02eEKCpaAEipmqDcBCDR7rsarqFE/view?usp=sharing"" target = ""_blank"">here</a> to read the full consent form. </p>
        <p style=""font-size:20px;""> If you agree to participate, please click the button below to continue to experiment instructions.</p>
        ","0","consent","89371","html-button-response","0","184783","0.0-0.0","21","1","2022-11-29 21:24:49","2df368f4e41f066fd1c82c297b4a1108","201.188.97.38","Mozilla/5.0 (Windows NT 10.0; Win64; x64) AppleWebKit/537.36 (KHTML, like Gecko) Chrome/107.0.0.0 Safari/537.36 Edg/107.0.1418.56","WebKit","Edge","107.0.1418.56","Windows","10.0","","","","",""
"6093","","{""ID"":""5c842b246a4b9b0014c84c30""}","ID","89371","survey-text","1","190879","0.0-1.0","21","1","2022-11-29 21:24:49","2df368f4e41f066fd1c82c297b4a1108","201.188.97.38","Mozilla/5.0 (Windows NT 10.0; Win64; x64) AppleWebKit/537.36 (KHTML, like Gecko) Chrome/107.0.0.0 Safari/537.36 Edg/107.0.1418.56","WebKit","Edge","107.0.1418.56","Windows","10.0","","","","",""
"11583","
        <p style=""font-size:20px;""> You are about to begin the practice test. </p>
        <p style=""font-size:20px;""> On each trial, you will see a sentence in English and its corresponding Spanish translation. </p>
        <p style=""font-size:20px;""> You will rate the accuracy of the translation on a scale from ""Not at all accurate"" to ""Very accurate."" </p>
        <p style=""font-size:20px;""> If you rate the translation as ""Somewhat innaccurate"" or ""Not at all accurate,"" you will be asked to provide your own translation or a reason why the translation is inaccurate. </p>
        <p style=""font-size:20px;""> Click the button below to continue to the practice session.</p>","0","instructions","89371","html-button-response","2","202462","0.0-2.0","21","1","2022-11-29 21:24:49","2df368f4e41f066fd1c82c297b4a1108","201.188.97.38","Mozilla/5.0 (Windows NT 10.0; Win64; x64) AppleWebKit/537.36 (KHTML, like Gecko) Chrome/107.0.0.0 Safari/537.36 Edg/107.0.1418.56","WebKit","Edge","107.0.1418.56","Windows","10.0","","","","",""
"19222","You see how a duck is playing with a pumpkin <br> T&uacute ves como un pato est&aacute jugando con una calabaza","{""Q0"":3}","practice","89371","survey-likert","3","221687","0.0-3.0-0.0","21","1","2022-11-29 21:24:49","2df368f4e41f066fd1c82c297b4a1108","201.188.97.38","Mozilla/5.0 (Windows NT 10.0; Win64; x64) AppleWebKit/537.36 (KHTML, like Gecko) Chrome/107.0.0.0 Safari/537.36 Edg/107.0.1418.56","WebKit","Edge","107.0.1418.56","Windows","10.0","[0]","3","","",""
"9294","You see how an artist is running <br> T&uacute ves como un artista est&aacute corriendo","{""Q0"":3}","practice","89371","survey-likert","4","230984","0.0-3.0-0.1","21","1","2022-11-29 21:24:49","2df368f4e41f066fd1c82c297b4a1108","201.188.97.38","Mozilla/5.0 (Windows NT 10.0; Win64; x64) AppleWebKit/537.36 (KHTML, like Gecko) Chrome/107.0.0.0 Safari/537.36 Edg/107.0.1418.56","WebKit","Edge","107.0.1418.56","Windows","10.0","[0]","3","","",""
"13701","You drop a rock on a phone <br> T&uacute tiras una piedra a un tel&eacutefono","{""Q0"":1}","practice","89371","survey-likert","5","244687","0.0-3.0-0.2","21","1","2022-11-29 21:24:49","2df368f4e41f066fd1c82c297b4a1108","201.188.97.38","Mozilla/5.0 (Windows NT 10.0; Win64; x64) AppleWebKit/537.36 (KHTML, like Gecko) Chrome/107.0.0.0 Safari/537.36 Edg/107.0.1418.56","WebKit","Edge","107.0.1418.56","Windows","10.0","[0]","1","","",""
"34300","You drop a rock on a phone <br> T&uacute tiras una piedra a un tel&eacutefono","{""Q0"":""Sueltas una roca sobre un teléfono""}","practice_low_rate","89371","survey-text","6","278990","0.0-3.0-1.2-0.2","21","1","2022-11-29 21:24:49","2df368f4e41f066fd1c82c297b4a1108","201.188.97.38","Mozilla/5.0 (Windows NT 10.0; Win64; x64) AppleWebKit/537.36 (KHTML, like Gecko) Chrome/107.0.0.0 Safari/537.36 Edg/107.0.1418.56","WebKit","Edge","107.0.1418.56","Windows","10.0","","","1","",""
"103391","You drop a bowling ball on a mircrowave <br> T&uacute tiras una bola de boliche a un horno","{""Q0"":1}","practice","89371","survey-likert","7","382383","0.0-3.0-0.3","21","1","2022-11-29 21:24:49","2df368f4e41f066fd1c82c297b4a1108","201.188.97.38","Mozilla/5.0 (Windows NT 10.0; Win64; x64) AppleWebKit/537.36 (KHTML, like Gecko) Chrome/107.0.0.0 Safari/537.36 Edg/107.0.1418.56","WebKit","Edge","107.0.1418.56","Windows","10.0","[0]","1","","",""
"15646","You drop a bowling ball on a mircrowave <br> T&uacute tiras una bola de boliche a un horno","{""Q0"":""Sueltas una bola de boliche sobre un microondas""}","practice_low_rate","89371","survey-text","8","398031","0.0-3.0-1.3-0.3","21","1","2022-11-29 21:24:49","2df368f4e41f066fd1c82c297b4a1108","201.188.97.38","Mozilla/5.0 (Windows NT 10.0; Win64; x64) AppleWebKit/537.36 (KHTML, like Gecko) Chrome/107.0.0.0 Safari/537.36 Edg/107.0.1418.56","WebKit","Edge","107.0.1418.56","Windows","10.0","","","6","",""
"33423","You see how a teacher is drawing a picture <br> T&uacute ves como un maestro pinta una foto","{""Q0"":1}","practice","89371","survey-likert","9","431455","0.0-3.0-0.4","21","1","2022-11-29 21:24:49","2df368f4e41f066fd1c82c297b4a1108","201.188.97.38","Mozilla/5.0 (Windows NT 10.0; Win64; x64) AppleWebKit/537.36 (KHTML, like Gecko) Chrome/107.0.0.0 Safari/537.36 Edg/107.0.1418.56","WebKit","Edge","107.0.1418.56","Windows","10.0","[0]","1","","",""
"11013","You see how a teacher is drawing a picture <br> T&uacute ves como un maestro pinta una foto","{""Q0"":""Ves como un profesor dibuja una imagen""}","practice_low_rate","89371","survey-text","10","442471","0.0-3.0-1.4-0.4","21","1","2022-11-29 21:24:49","2df368f4e41f066fd1c82c297b4a1108","201.188.97.38","Mozilla/5.0 (Windows NT 10.0; Win64; x64) AppleWebKit/537.36 (KHTML, like Gecko) Chrome/107.0.0.0 Safari/537.36 Edg/107.0.1418.56","WebKit","Edge","107.0.1418.56","Windows","10.0","","","4","",""
"14407","You see how a tiger is playing with a goose <br> T&uacute ves como un le&oacuten come una pizza","{""Q0"":0}","practice","89371","survey-likert","11","456879","0.0-3.0-0.5","21","1","2022-11-29 21:24:49","2df368f4e41f066fd1c82c297b4a1108","201.188.97.38","Mozilla/5.0 (Windows NT 10.0; Win64; x64) AppleWebKit/537.36 (KHTML, like Gecko) Chrome/107.0.0.0 Safari/537.36 Edg/107.0.1418.56","WebKit","Edge","107.0.1418.56","Windows","10.0","[0]","0","","",""
"10718","You see how a tiger is playing with a goose <br> T&uacute ves como un le&oacuten come una pizza","{""Q0"":""Ves como un tigre juega con un ganso""}","practice_low_rate","89371","survey-text","12","467599","0.0-3.0-1.5-0.5","21","1","2022-11-29 21:24:49","2df368f4e41f066fd1c82c297b4a1108","201.188.97.38","Mozilla/5.0 (Windows NT 10.0; Win64; x64) AppleWebKit/537.36 (KHTML, like Gecko) Chrome/107.0.0.0 Safari/537.36 Edg/107.0.1418.56","WebKit","Edge","107.0.1418.56","Windows","10.0","","","5","",""
"1903","<p style=""font-size:20px;"">You have now completed the practice session! </p>
        <p style=""font-size:20px;"">You will now move on to the main experiment. </p>
        <p style=""font-size:20px;"">Please click the button below to continue. </p>","0","movetoexp","89371","html-button-response","13","469503","0.0-4.0","21","1","2022-11-29 21:24:49","2df368f4e41f066fd1c82c297b4a1108","201.188.97.38","Mozilla/5.0 (Windows NT 10.0; Win64; x64) AppleWebKit/537.36 (KHTML, like Gecko) Chrome/107.0.0.0 Safari/537.36 Edg/107.0.1418.56","WebKit","Edge","107.0.1418.56","Windows","10.0","","","","",""
"10808","You drop a bowling ball on a piece of cake <br> T&uacute tiras una bola de boliche a un trozo de pastel","{""Q0"":1}","trial","89371","survey-likert","14","480312","0.0-5.0-0.0","21","1","2022-11-29 21:24:49","2df368f4e41f066fd1c82c297b4a1108","201.188.97.38","Mozilla/5.0 (Windows NT 10.0; Win64; x64) AppleWebKit/537.36 (KHTML, like Gecko) Chrome/107.0.0.0 Safari/537.36 Edg/107.0.1418.56","WebKit","Edge","107.0.1418.56","Windows","10.0","[0]","","2","1",""
"16205","You drop a bowling ball on a piece of cake <br> T&uacute tiras una bola de boliche a un trozo de pastel","{""Q0"":""Sueltas una bola de bolicha sobre un trozo de pastel""}","low_rate","89371","survey-text","15","496518","0.0-5.0-1.0-0.0","21","1","2022-11-29 21:24:49","2df368f4e41f066fd1c82c297b4a1108","201.188.97.38","Mozilla/5.0 (Windows NT 10.0; Win64; x64) AppleWebKit/537.36 (KHTML, like Gecko) Chrome/107.0.0.0 Safari/537.36 Edg/107.0.1418.56","WebKit","Edge","107.0.1418.56","Windows","10.0","","","2","",""
"5967","You see how a police officer is talking on the phone <br> T&uacute ves como un polic&iacutea est&aacute hablando por el tel&eacutefono","{""Q0"":4}","trial","89371","survey-likert","16","502487","0.0-5.0-0.1","21","1","2022-11-29 21:24:49","2df368f4e41f066fd1c82c297b4a1108","201.188.97.38","Mozilla/5.0 (Windows NT 10.0; Win64; x64) AppleWebKit/537.36 (KHTML, like Gecko) Chrome/107.0.0.0 Safari/537.36 Edg/107.0.1418.56","WebKit","Edge","107.0.1418.56","Windows","10.0","[0]","","62","4",""
"6694","You see how a student is writing on a board <br> T&uacute ves como un estudiante est&aacute escribiendo en la pizarra","{""Q0"":4}","trial","89371","survey-likert","17","509183","0.0-5.0-0.2","21","1","2022-11-29 21:24:49","2df368f4e41f066fd1c82c297b4a1108","201.188.97.38","Mozilla/5.0 (Windows NT 10.0; Win64; x64) AppleWebKit/537.36 (KHTML, like Gecko) Chrome/107.0.0.0 Safari/537.36 Edg/107.0.1418.56","WebKit","Edge","107.0.1418.56","Windows","10.0","[0]","","50","4",""
"10630","You drop a bowling ball on an egg flan <br> T&uacute tiras una bola de boliche a un flan","{""Q0"":1}","trial","89371","survey-likert","18","519815","0.0-5.0-0.3","21","1","2022-11-29 21:24:49","2df368f4e41f066fd1c82c297b4a1108","201.188.97.38","Mozilla/5.0 (Windows NT 10.0; Win64; x64) AppleWebKit/537.36 (KHTML, like Gecko) Chrome/107.0.0.0 Safari/537.36 Edg/107.0.1418.56","WebKit","Edge","107.0.1418.56","Windows","10.0","[0]","","7","1",""
"11775","You drop a bowling ball on an egg flan <br> T&uacute tiras una bola de boliche a un flan","{""Q0"":""Sueltas una bola de boliche sobre un flan""}","low_rate","89371","survey-text","19","531592","0.0-5.0-1.3-0.3","21","1","2022-11-29 21:24:49","2df368f4e41f066fd1c82c297b4a1108","201.188.97.38","Mozilla/5.0 (Windows NT 10.0; Win64; x64) AppleWebKit/537.36 (KHTML, like Gecko) Chrome/107.0.0.0 Safari/537.36 Edg/107.0.1418.56","WebKit","Edge","107.0.1418.56","Windows","10.0","","","7","",""
"7149","You drop a bowling ball on a paper cup <br> T&uacute tiras una bola de boliche a un vaso de papel","{""Q0"":1}","trial","89371","survey-likert","20","538743","0.0-5.0-0.4","21","1","2022-11-29 21:24:49","2df368f4e41f066fd1c82c297b4a1108","201.188.97.38","Mozilla/5.0 (Windows NT 10.0; Win64; x64) AppleWebKit/537.36 (KHTML, like Gecko) Chrome/107.0.0.0 Safari/537.36 Edg/107.0.1418.56","WebKit","Edge","107.0.1418.56","Windows","10.0","[0]","","24","1",""
"15566","You drop a bowling ball on a paper cup <br> T&uacute tiras una bola de boliche a un vaso de papel","{""Q0"":""Suletas una bola de boliche sobre un vaso de papel""}","low_rate","89371","survey-text","21","554311","0.0-5.0-1.4-0.4","21","1","2022-11-29 21:24:49","2df368f4e41f066fd1c82c297b4a1108","201.188.97.38","Mozilla/5.0 (Windows NT 10.0; Win64; x64) AppleWebKit/537.36 (KHTML, like Gecko) Chrome/107.0.0.0 Safari/537.36 Edg/107.0.1418.56","WebKit","Edge","107.0.1418.56","Windows","10.0","","","24","",""
"4863","You drop a bowling ball on a donut <br> T&uacute tiras una bola de boliche a una rosquilla","{""Q0"":1}","trial","89371","survey-likert","22","559175","0.0-5.0-0.5","21","1","2022-11-29 21:24:49","2df368f4e41f066fd1c82c297b4a1108","201.188.97.38","Mozilla/5.0 (Windows NT 10.0; Win64; x64) AppleWebKit/537.36 (KHTML, like Gecko) Chrome/107.0.0.0 Safari/537.36 Edg/107.0.1418.56","WebKit","Edge","107.0.1418.56","Windows","10.0","[0]","","17","1",""
"12574","You drop a bowling ball on a donut <br> T&uacute tiras una bola de boliche a una rosquilla","{""Q0"":""Sueltas una bola de boliche sobre una dona""}","low_rate","89371","survey-text","23","571750","0.0-5.0-1.5-0.5","21","1","2022-11-29 21:24:49","2df368f4e41f066fd1c82c297b4a1108","201.188.97.38","Mozilla/5.0 (Windows NT 10.0; Win64; x64) AppleWebKit/537.36 (KHTML, like Gecko) Chrome/107.0.0.0 Safari/537.36 Edg/107.0.1418.56","WebKit","Edge","107.0.1418.56","Windows","10.0","","","17","",""
"3407","You drop a bowling ball on a mirror <br> T&uacute tiras una bola de boliche a un espejo","{""Q0"":1}","trial","89371","survey-likert","24","575159","0.0-5.0-0.6","21","1","2022-11-29 21:24:49","2df368f4e41f066fd1c82c297b4a1108","201.188.97.38","Mozilla/5.0 (Windows NT 10.0; Win64; x64) AppleWebKit/537.36 (KHTML, like Gecko) Chrome/107.0.0.0 Safari/537.36 Edg/107.0.1418.56","WebKit","Edge","107.0.1418.56","Windows","10.0","[0]","","15","1",""
"7021","You drop a bowling ball on a mirror <br> T&uacute tiras una bola de boliche a un espejo","{""Q0"":""Sueltas una bola de boliche sobre un espejo""}","low_rate","89371","survey-text","25","582182","0.0-5.0-1.6-0.6","21","1","2022-11-29 21:24:49","2df368f4e41f066fd1c82c297b4a1108","201.188.97.38","Mozilla/5.0 (Windows NT 10.0; Win64; x64) AppleWebKit/537.36 (KHTML, like Gecko) Chrome/107.0.0.0 Safari/537.36 Edg/107.0.1418.56","WebKit","Edge","107.0.1418.56","Windows","10.0","","","15","",""
"4527","You drop a bowling ball on an iPhone <br> T&uacute tiras una bola de boliche a un iPhone","{""Q0"":1}","trial","89371","survey-likert","26","586711","0.0-5.0-0.7","21","1","2022-11-29 21:24:49","2df368f4e41f066fd1c82c297b4a1108","201.188.97.38","Mozilla/5.0 (Windows NT 10.0; Win64; x64) AppleWebKit/537.36 (KHTML, like Gecko) Chrome/107.0.0.0 Safari/537.36 Edg/107.0.1418.56","WebKit","Edge","107.0.1418.56","Windows","10.0","[0]","","13","1",""
"5437","You drop a bowling ball on an iPhone <br> T&uacute tiras una bola de boliche a un iPhone","{""Q0"":""Sueltas una bola de boliche sobre un iPhone""}","low_rate","89371","survey-text","27","592151","0.0-5.0-1.7-0.7","21","1","2022-11-29 21:24:49","2df368f4e41f066fd1c82c297b4a1108","201.188.97.38","Mozilla/5.0 (Windows NT 10.0; Win64; x64) AppleWebKit/537.36 (KHTML, like Gecko) Chrome/107.0.0.0 Safari/537.36 Edg/107.0.1418.56","WebKit","Edge","107.0.1418.56","Windows","10.0","","","13","",""
"7503","You see how a boy is peeling a banana <br> T&uacute ves como un ni&ntildeo est&aacute pelando una banana","{""Q0"":4}","trial","89371","survey-likert","28","599654","0.0-5.0-0.8","21","1","2022-11-29 21:24:49","2df368f4e41f066fd1c82c297b4a1108","201.188.97.38","Mozilla/5.0 (Windows NT 10.0; Win64; x64) AppleWebKit/537.36 (KHTML, like Gecko) Chrome/107.0.0.0 Safari/537.36 Edg/107.0.1418.56","WebKit","Edge","107.0.1418.56","Windows","10.0","[0]","","30","4",""
"4141","You see how a donkey is drinking water <br> T&uacute ves como un burro est&aacute bebiendo agua","{""Q0"":4}","trial","89371","survey-likert","29","603799","0.0-5.0-0.9","21","1","2022-11-29 21:24:49","2df368f4e41f066fd1c82c297b4a1108","201.188.97.38","Mozilla/5.0 (Windows NT 10.0; Win64; x64) AppleWebKit/537.36 (KHTML, like Gecko) Chrome/107.0.0.0 Safari/537.36 Edg/107.0.1418.56","WebKit","Edge","107.0.1418.56","Windows","10.0","[0]","","45","4",""
"7813","You see how a photographer is taking a photo of a lion <br> T&uacute ves como un fot&oacutegrafo est&aacute tomando una foto de un le&oacuten","{""Q0"":4}","trial","89371","survey-likert","30","611615","0.0-5.0-0.10","21","1","2022-11-29 21:24:49","2df368f4e41f066fd1c82c297b4a1108","201.188.97.38","Mozilla/5.0 (Windows NT 10.0; Win64; x64) AppleWebKit/537.36 (KHTML, like Gecko) Chrome/107.0.0.0 Safari/537.36 Edg/107.0.1418.56","WebKit","Edge","107.0.1418.56","Windows","10.0","[0]","","72","4",""
"7141","You drop a towel on the TV <br> T&uacute tiras una toalla a la televisi&oacuten","{""Q0"":1}","trial","89371","survey-likert","31","618759","0.0-5.0-0.11","21","1","2022-11-29 21:24:49","2df368f4e41f066fd1c82c297b4a1108","201.188.97.38","Mozilla/5.0 (Windows NT 10.0; Win64; x64) AppleWebKit/537.36 (KHTML, like Gecko) Chrome/107.0.0.0 Safari/537.36 Edg/107.0.1418.56","WebKit","Edge","107.0.1418.56","Windows","10.0","[0]","","53","1",""
"11517","You drop a towel on the TV <br> T&uacute tiras una toalla a la televisi&oacuten","{""Q0"":""Sueltas una toalla sobre la television""}","low_rate","89371","survey-text","32","630279","0.0-5.0-1.11-0.11","21","1","2022-11-29 21:24:49","2df368f4e41f066fd1c82c297b4a1108","201.188.97.38","Mozilla/5.0 (Windows NT 10.0; Win64; x64) AppleWebKit/537.36 (KHTML, like Gecko) Chrome/107.0.0.0 Safari/537.36 Edg/107.0.1418.56","WebKit","Edge","107.0.1418.56","Windows","10.0","","","53","",""
"4167","You drop a bowling ball on a strawberry <br> T&uacute tiras una bola de boliche a una fresa","{""Q0"":1}","trial","89371","survey-likert","33","634447","0.0-5.0-0.12","21","1","2022-11-29 21:24:49","2df368f4e41f066fd1c82c297b4a1108","201.188.97.38","Mozilla/5.0 (Windows NT 10.0; Win64; x64) AppleWebKit/537.36 (KHTML, like Gecko) Chrome/107.0.0.0 Safari/537.36 Edg/107.0.1418.56","WebKit","Edge","107.0.1418.56","Windows","10.0","[0]","","20","1",""
"8965","You drop a bowling ball on a strawberry <br> T&uacute tiras una bola de boliche a una fresa","{""Q0"":""Sueltas una bola de boliche sobre una frutilla""}","low_rate","89371","survey-text","34","643414","0.0-5.0-1.12-0.12","21","1","2022-11-29 21:24:49","2df368f4e41f066fd1c82c297b4a1108","201.188.97.38","Mozilla/5.0 (Windows NT 10.0; Win64; x64) AppleWebKit/537.36 (KHTML, like Gecko) Chrome/107.0.0.0 Safari/537.36 Edg/107.0.1418.56","WebKit","Edge","107.0.1418.56","Windows","10.0","","","20","",""
"6263","You see how a panda is resting on a tree <br> T&uacute ves como un panda est&aacute descansando en un &aacuterbol","{""Q0"":4}","trial","89371","survey-likert","35","649678","0.0-5.0-0.13","21","1","2022-11-29 21:24:49","2df368f4e41f066fd1c82c297b4a1108","201.188.97.38","Mozilla/5.0 (Windows NT 10.0; Win64; x64) AppleWebKit/537.36 (KHTML, like Gecko) Chrome/107.0.0.0 Safari/537.36 Edg/107.0.1418.56","WebKit","Edge","107.0.1418.56","Windows","10.0","[0]","","57","4",""
"6039","You drop a bowling ball on a chocolate muffin <br> T&uacute tiras una bola de boliche a una magdalena de chocolate","{""Q0"":1}","trial","89371","survey-likert","36","655720","0.0-5.0-0.14","21","1","2022-11-29 21:24:49","2df368f4e41f066fd1c82c297b4a1108","201.188.97.38","Mozilla/5.0 (Windows NT 10.0; Win64; x64) AppleWebKit/537.36 (KHTML, like Gecko) Chrome/107.0.0.0 Safari/537.36 Edg/107.0.1418.56","WebKit","Edge","107.0.1418.56","Windows","10.0","[0]","","16","1",""
"13052","You drop a bowling ball on a chocolate muffin <br> T&uacute tiras una bola de boliche a una magdalena de chocolate","{""Q0"":""Sueltas una bola de boliche sobre un muffin de chocolate""}","low_rate","89371","survey-text","37","668775","0.0-5.0-1.14-0.14","21","1","2022-11-29 21:24:49","2df368f4e41f066fd1c82c297b4a1108","201.188.97.38","Mozilla/5.0 (Windows NT 10.0; Win64; x64) AppleWebKit/537.36 (KHTML, like Gecko) Chrome/107.0.0.0 Safari/537.36 Edg/107.0.1418.56","WebKit","Edge","107.0.1418.56","Windows","10.0","","","16","",""
"7183","You see how a nurse is taking a syringe <br> T&uacute ves como una enfermera est&aacute agarrando una jeringuilla","{""Q0"":4}","trial","89371","survey-likert","38","675959","0.0-5.0-0.15","21","1","2022-11-29 21:24:49","2df368f4e41f066fd1c82c297b4a1108","201.188.97.38","Mozilla/5.0 (Windows NT 10.0; Win64; x64) AppleWebKit/537.36 (KHTML, like Gecko) Chrome/107.0.0.0 Safari/537.36 Edg/107.0.1418.56","WebKit","Edge","107.0.1418.56","Windows","10.0","[0]","","48","4",""
"4389","You see how a thief is stealing a wallet <br> T&uacute ves como un ladr&oacuten est&aacute robando una billetera","{""Q0"":4}","trial","89371","survey-likert","39","680351","0.0-5.0-0.16","21","1","2022-11-29 21:24:49","2df368f4e41f066fd1c82c297b4a1108","201.188.97.38","Mozilla/5.0 (Windows NT 10.0; Win64; x64) AppleWebKit/537.36 (KHTML, like Gecko) Chrome/107.0.0.0 Safari/537.36 Edg/107.0.1418.56","WebKit","Edge","107.0.1418.56","Windows","10.0","[0]","","68","4",""
"4590","You see how a zebra is playing with a horse <br> T&uacute ves como una cebra est&aacute jugando con un caballo","{""Q0"":4}","trial","89371","survey-likert","40","684943","0.0-5.0-0.17","21","1","2022-11-29 21:24:49","2df368f4e41f066fd1c82c297b4a1108","201.188.97.38","Mozilla/5.0 (Windows NT 10.0; Win64; x64) AppleWebKit/537.36 (KHTML, like Gecko) Chrome/107.0.0.0 Safari/537.36 Edg/107.0.1418.56","WebKit","Edge","107.0.1418.56","Windows","10.0","[0]","","66","4",""
"6517","You see how a mouse is eating cheese <br> T&uacute ves como el rat&oacuten est&aacute comiendo queso","{""Q0"":3}","trial","89371","survey-likert","41","691463","0.0-5.0-0.18","21","1","2022-11-29 21:24:49","2df368f4e41f066fd1c82c297b4a1108","201.188.97.38","Mozilla/5.0 (Windows NT 10.0; Win64; x64) AppleWebKit/537.36 (KHTML, like Gecko) Chrome/107.0.0.0 Safari/537.36 Edg/107.0.1418.56","WebKit","Edge","107.0.1418.56","Windows","10.0","[0]","","56","3",""
"4781","You drop a thermometer on the box <br> T&uacute tiras un term&oacutemetro a la caja","{""Q0"":1}","trial","89371","survey-likert","42","696247","0.0-5.0-0.19","21","1","2022-11-29 21:24:49","2df368f4e41f066fd1c82c297b4a1108","201.188.97.38","Mozilla/5.0 (Windows NT 10.0; Win64; x64) AppleWebKit/537.36 (KHTML, like Gecko) Chrome/107.0.0.0 Safari/537.36 Edg/107.0.1418.56","WebKit","Edge","107.0.1418.56","Windows","10.0","[0]","","70","1",""
"25212","You drop a thermometer on the box <br> T&uacute tiras un term&oacutemetro a la caja","{""Q0"":""Sueltas un termómetro sobre una caja""}","low_rate","89371","survey-text","43","721463","0.0-5.0-1.19-0.19","21","1","2022-11-29 21:24:49","2df368f4e41f066fd1c82c297b4a1108","201.188.97.38","Mozilla/5.0 (Windows NT 10.0; Win64; x64) AppleWebKit/537.36 (KHTML, like Gecko) Chrome/107.0.0.0 Safari/537.36 Edg/107.0.1418.56","WebKit","Edge","107.0.1418.56","Windows","10.0","","","70","",""
"5943","You see how an owl is sitting on the branch <br> T&uacute ves como un b&uacuteho est&aacute reposando en una rama","{""Q0"":4}","trial","89371","survey-likert","44","727407","0.0-5.0-0.20","21","1","2022-11-29 21:24:49","2df368f4e41f066fd1c82c297b4a1108","201.188.97.38","Mozilla/5.0 (Windows NT 10.0; Win64; x64) AppleWebKit/537.36 (KHTML, like Gecko) Chrome/107.0.0.0 Safari/537.36 Edg/107.0.1418.56","WebKit","Edge","107.0.1418.56","Windows","10.0","[0]","","69","4",""
"3734","You see how a hairdresser is taking scissors <br> T&uacute ves como una peluquera est&aacute agarrando las tijeras","{""Q0"":4}","trial","89371","survey-likert","45","731143","0.0-5.0-0.21","21","1","2022-11-29 21:24:49","2df368f4e41f066fd1c82c297b4a1108","201.188.97.38","Mozilla/5.0 (Windows NT 10.0; Win64; x64) AppleWebKit/537.36 (KHTML, like Gecko) Chrome/107.0.0.0 Safari/537.36 Edg/107.0.1418.56","WebKit","Edge","107.0.1418.56","Windows","10.0","[0]","","60","4",""
"3310","You see how a man is playing with a cat <br> T&uacute ves como un hombre est&aacute jugando con un gato","{""Q0"":4}","trial","89371","survey-likert","46","734455","0.0-5.0-0.22","21","1","2022-11-29 21:24:49","2df368f4e41f066fd1c82c297b4a1108","201.188.97.38","Mozilla/5.0 (Windows NT 10.0; Win64; x64) AppleWebKit/537.36 (KHTML, like Gecko) Chrome/107.0.0.0 Safari/537.36 Edg/107.0.1418.56","WebKit","Edge","107.0.1418.56","Windows","10.0","[0]","","67","4",""
"6061","You drop a keyboard on the bed <br> T&uacute tiras un teclado a la cama","{""Q0"":1}","trial","89371","survey-likert","47","740518","0.0-5.0-0.23","21","1","2022-11-29 21:24:49","2df368f4e41f066fd1c82c297b4a1108","201.188.97.38","Mozilla/5.0 (Windows NT 10.0; Win64; x64) AppleWebKit/537.36 (KHTML, like Gecko) Chrome/107.0.0.0 Safari/537.36 Edg/107.0.1418.56","WebKit","Edge","107.0.1418.56","Windows","10.0","[0]","","36","1",""
"18341","You drop a keyboard on the bed <br> T&uacute tiras un teclado a la cama","{""Q0"":""Sueltas un teclado sobre una cama""}","low_rate","89371","survey-text","48","758863","0.0-5.0-1.23-0.23","21","1","2022-11-29 21:24:49","2df368f4e41f066fd1c82c297b4a1108","201.188.97.38","Mozilla/5.0 (Windows NT 10.0; Win64; x64) AppleWebKit/537.36 (KHTML, like Gecko) Chrome/107.0.0.0 Safari/537.36 Edg/107.0.1418.56","WebKit","Edge","107.0.1418.56","Windows","10.0","","","36","",""
"4223","You see how an old man is hammering a nail <br> T&uacute ves como un hombre anciano est&aacute martillando un clavo","{""Q0"":4}","trial","89371","survey-likert","49","763087","0.0-5.0-0.24","21","1","2022-11-29 21:24:49","2df368f4e41f066fd1c82c297b4a1108","201.188.97.38","Mozilla/5.0 (Windows NT 10.0; Win64; x64) AppleWebKit/537.36 (KHTML, like Gecko) Chrome/107.0.0.0 Safari/537.36 Edg/107.0.1418.56","WebKit","Edge","107.0.1418.56","Windows","10.0","[0]","","29","4",""
"30269","You see how a doctor is taking a stethoscope <br> T&uacute ves como un doctor est&aacute agarrando un estetoscopio","{""Q0"":3}","trial","89371","survey-likert","50","793359","0.0-5.0-0.25","21","1","2022-11-29 21:24:49","2df368f4e41f066fd1c82c297b4a1108","201.188.97.38","Mozilla/5.0 (Windows NT 10.0; Win64; x64) AppleWebKit/537.36 (KHTML, like Gecko) Chrome/107.0.0.0 Safari/537.36 Edg/107.0.1418.56","WebKit","Edge","107.0.1418.56","Windows","10.0","[0]","","49","3",""
"4565","You see how a woman is paying with a debit card <br> T&uacute ves como una mujer est&aacute pagando con una tarjeta de d&eacutebito","{""Q0"":4}","trial","89371","survey-likert","51","797926","0.0-5.0-0.26","21","1","2022-11-29 21:24:49","2df368f4e41f066fd1c82c297b4a1108","201.188.97.38","Mozilla/5.0 (Windows NT 10.0; Win64; x64) AppleWebKit/537.36 (KHTML, like Gecko) Chrome/107.0.0.0 Safari/537.36 Edg/107.0.1418.56","WebKit","Edge","107.0.1418.56","Windows","10.0","[0]","","64","4",""
"2918","You see how a parrot is eating an apple <br> T&uacute ves como un loro est&aacute comiendo una manzana","{""Q0"":4}","trial","89371","survey-likert","52","800846","0.0-5.0-0.27","21","1","2022-11-29 21:24:49","2df368f4e41f066fd1c82c297b4a1108","201.188.97.38","Mozilla/5.0 (Windows NT 10.0; Win64; x64) AppleWebKit/537.36 (KHTML, like Gecko) Chrome/107.0.0.0 Safari/537.36 Edg/107.0.1418.56","WebKit","Edge","107.0.1418.56","Windows","10.0","[0]","","58","4",""
"4549","You see how a puppy is playing with a ball <br> T&uacute ves como un cachorro est&aacute jugando con una pelota","{""Q0"":4}","trial","89371","survey-likert","53","805399","0.0-5.0-0.28","21","1","2022-11-29 21:24:49","2df368f4e41f066fd1c82c297b4a1108","201.188.97.38","Mozilla/5.0 (Windows NT 10.0; Win64; x64) AppleWebKit/537.36 (KHTML, like Gecko) Chrome/107.0.0.0 Safari/537.36 Edg/107.0.1418.56","WebKit","Edge","107.0.1418.56","Windows","10.0","[0]","","34","4",""
"3526","You see how an elephant is eating a watermelon <br> T&uacute ves como un elefante est&aacute comiendo una sand&iacutea","{""Q0"":4}","trial","89371","survey-likert","54","808927","0.0-5.0-0.29","21","1","2022-11-29 21:24:49","2df368f4e41f066fd1c82c297b4a1108","201.188.97.38","Mozilla/5.0 (Windows NT 10.0; Win64; x64) AppleWebKit/537.36 (KHTML, like Gecko) Chrome/107.0.0.0 Safari/537.36 Edg/107.0.1418.56","WebKit","Edge","107.0.1418.56","Windows","10.0","[0]","","31","4",""
"2549","You see how a man is shaving his beard <br> T&uacute ves como un hombre se est&aacute afeitando la barba","{""Q0"":4}","trial","89371","survey-likert","55","811479","0.0-5.0-0.30","21","1","2022-11-29 21:24:49","2df368f4e41f066fd1c82c297b4a1108","201.188.97.38","Mozilla/5.0 (Windows NT 10.0; Win64; x64) AppleWebKit/537.36 (KHTML, like Gecko) Chrome/107.0.0.0 Safari/537.36 Edg/107.0.1418.56","WebKit","Edge","107.0.1418.56","Windows","10.0","[0]","","43","4",""
"2462","You see how a butterfly is sitting on a flower <br> T&uacute ves como una mariposa est&aacute reposando en una flor","{""Q0"":4}","trial","89371","survey-likert","56","813943","0.0-5.0-0.31","21","1","2022-11-29 21:24:49","2df368f4e41f066fd1c82c297b4a1108","201.188.97.38","Mozilla/5.0 (Windows NT 10.0; Win64; x64) AppleWebKit/537.36 (KHTML, like Gecko) Chrome/107.0.0.0 Safari/537.36 Edg/107.0.1418.56","WebKit","Edge","107.0.1418.56","Windows","10.0","[0]","","59","4",""
"20605","You drop a toothbrush on the sponge <br> T&uacute tiras un cepillo de dientes en la esponja","{""Q0"":1}","trial","89371","survey-likert","57","834551","0.0-5.0-0.32","21","1","2022-11-29 21:24:49","2df368f4e41f066fd1c82c297b4a1108","201.188.97.38","Mozilla/5.0 (Windows NT 10.0; Win64; x64) AppleWebKit/537.36 (KHTML, like Gecko) Chrome/107.0.0.0 Safari/537.36 Edg/107.0.1418.56","WebKit","Edge","107.0.1418.56","Windows","10.0","[0]","","25","1",""
"13109","You drop a toothbrush on the sponge <br> T&uacute tiras un cepillo de dientes en la esponja","{""Q0"":""Sueltas un cepillo de dientes sobre una esponja""}","low_rate","89371","survey-text","58","847663","0.0-5.0-1.32-0.32","21","1","2022-11-29 21:24:49","2df368f4e41f066fd1c82c297b4a1108","201.188.97.38","Mozilla/5.0 (Windows NT 10.0; Win64; x64) AppleWebKit/537.36 (KHTML, like Gecko) Chrome/107.0.0.0 Safari/537.36 Edg/107.0.1418.56","WebKit","Edge","107.0.1418.56","Windows","10.0","","","25","",""
"7806","You see how a postman is driving a car <br> T&uacute ves como un cartero est&aacute conduciendo un coche","{""Q0"":4}","trial","89371","survey-likert","59","855471","0.0-5.0-0.33","21","1","2022-11-29 21:24:49","2df368f4e41f066fd1c82c297b4a1108","201.188.97.38","Mozilla/5.0 (Windows NT 10.0; Win64; x64) AppleWebKit/537.36 (KHTML, like Gecko) Chrome/107.0.0.0 Safari/537.36 Edg/107.0.1418.56","WebKit","Edge","107.0.1418.56","Windows","10.0","[0]","","32","4",""
"5598","You drop a bowling ball on a ceramic plate <br> T&uacute tiras una bola de boliche a un plato de cer&aacutemica","{""Q0"":1}","trial","89371","survey-likert","60","861071","0.0-5.0-0.34","21","1","2022-11-29 21:24:49","2df368f4e41f066fd1c82c297b4a1108","201.188.97.38","Mozilla/5.0 (Windows NT 10.0; Win64; x64) AppleWebKit/537.36 (KHTML, like Gecko) Chrome/107.0.0.0 Safari/537.36 Edg/107.0.1418.56","WebKit","Edge","107.0.1418.56","Windows","10.0","[0]","","19","1",""
"7261","You drop a bowling ball on a ceramic plate <br> T&uacute tiras una bola de boliche a un plato de cer&aacutemica","{""Q0"":""Sueltas una bola de boliche sobre un plato de cerámica""}","low_rate","89371","survey-text","61","868335","0.0-5.0-1.34-0.34","21","1","2022-11-29 21:24:49","2df368f4e41f066fd1c82c297b4a1108","201.188.97.38","Mozilla/5.0 (Windows NT 10.0; Win64; x64) AppleWebKit/537.36 (KHTML, like Gecko) Chrome/107.0.0.0 Safari/537.36 Edg/107.0.1418.56","WebKit","Edge","107.0.1418.56","Windows","10.0","","","19","",""
"4287","You drop a bowling ball on a wine glass <br> T&uacute tiras una bola de boliche a una copa de vino","{""Q0"":1}","trial","89371","survey-likert","62","872623","0.0-5.0-0.35","21","1","2022-11-29 21:24:49","2df368f4e41f066fd1c82c297b4a1108","201.188.97.38","Mozilla/5.0 (Windows NT 10.0; Win64; x64) AppleWebKit/537.36 (KHTML, like Gecko) Chrome/107.0.0.0 Safari/537.36 Edg/107.0.1418.56","WebKit","Edge","107.0.1418.56","Windows","10.0","[0]","","5","1",""
"8724","You drop a bowling ball on a wine glass <br> T&uacute tiras una bola de boliche a una copa de vino","{""Q0"":""Sueltas una bola de boliche sobre una copa de vino""}","low_rate","89371","survey-text","63","881351","0.0-5.0-1.35-0.35","21","1","2022-11-29 21:24:49","2df368f4e41f066fd1c82c297b4a1108","201.188.97.38","Mozilla/5.0 (Windows NT 10.0; Win64; x64) AppleWebKit/537.36 (KHTML, like Gecko) Chrome/107.0.0.0 Safari/537.36 Edg/107.0.1418.56","WebKit","Edge","107.0.1418.56","Windows","10.0","","","5","",""
"2551","You drop a bowling ball on a tomato <br> T&uacute tiras una bola de boliche a un tomate","{""Q0"":1}","trial","89371","survey-likert","64","883903","0.0-5.0-0.36","21","1","2022-11-29 21:24:49","2df368f4e41f066fd1c82c297b4a1108","201.188.97.38","Mozilla/5.0 (Windows NT 10.0; Win64; x64) AppleWebKit/537.36 (KHTML, like Gecko) Chrome/107.0.0.0 Safari/537.36 Edg/107.0.1418.56","WebKit","Edge","107.0.1418.56","Windows","10.0","[0]","","23","1",""
"4213","You drop a bowling ball on a tomato <br> T&uacute tiras una bola de boliche a un tomate","{""Q0"":""Sueltas una bola de boliche sobre un tomate""}","low_rate","89371","survey-text","65","888119","0.0-5.0-1.36-0.36","21","1","2022-11-29 21:24:49","2df368f4e41f066fd1c82c297b4a1108","201.188.97.38","Mozilla/5.0 (Windows NT 10.0; Win64; x64) AppleWebKit/537.36 (KHTML, like Gecko) Chrome/107.0.0.0 Safari/537.36 Edg/107.0.1418.56","WebKit","Edge","107.0.1418.56","Windows","10.0","","","23","",""
"3095","You see how a horse is chewing hay <br> T&uacute ves como un caballo est&aacute masticando el heno","{""Q0"":4}","trial","89371","survey-likert","66","891215","0.0-5.0-0.37","21","1","2022-11-29 21:24:49","2df368f4e41f066fd1c82c297b4a1108","201.188.97.38","Mozilla/5.0 (Windows NT 10.0; Win64; x64) AppleWebKit/537.36 (KHTML, like Gecko) Chrome/107.0.0.0 Safari/537.36 Edg/107.0.1418.56","WebKit","Edge","107.0.1418.56","Windows","10.0","[0]","","55","4",""
"3470","You drop a bowling ball on a light bulb <br> T&uacute tiras una bola de boliche a una bombilla","{""Q0"":1}","trial","89371","survey-likert","67","894687","0.0-5.0-0.38","21","1","2022-11-29 21:24:49","2df368f4e41f066fd1c82c297b4a1108","201.188.97.38","Mozilla/5.0 (Windows NT 10.0; Win64; x64) AppleWebKit/537.36 (KHTML, like Gecko) Chrome/107.0.0.0 Safari/537.36 Edg/107.0.1418.56","WebKit","Edge","107.0.1418.56","Windows","10.0","[0]","","14","1",""
"7453","You drop a bowling ball on a light bulb <br> T&uacute tiras una bola de boliche a una bombilla","{""Q0"":""Sueltas una bola de boliche sobre una ampolleta""}","low_rate","89371","survey-text","68","902143","0.0-5.0-1.38-0.38","21","1","2022-11-29 21:24:49","2df368f4e41f066fd1c82c297b4a1108","201.188.97.38","Mozilla/5.0 (Windows NT 10.0; Win64; x64) AppleWebKit/537.36 (KHTML, like Gecko) Chrome/107.0.0.0 Safari/537.36 Edg/107.0.1418.56","WebKit","Edge","107.0.1418.56","Windows","10.0","","","14","",""
"3919","You see how a dentist is drinking a can of cola <br> T&uacute ves como un dentista est&aacute bebiendo una lata de cola","{""Q0"":4}","trial","89371","survey-likert","69","906063","0.0-5.0-0.39","21","1","2022-11-29 21:24:49","2df368f4e41f066fd1c82c297b4a1108","201.188.97.38","Mozilla/5.0 (Windows NT 10.0; Win64; x64) AppleWebKit/537.36 (KHTML, like Gecko) Chrome/107.0.0.0 Safari/537.36 Edg/107.0.1418.56","WebKit","Edge","107.0.1418.56","Windows","10.0","[0]","","47","4",""
"2485","You see how a teenage girl is playing the piano <br> T&uacute ves como una ni&ntildea adolescente est&aacute tocando el piano","{""Q0"":4}","trial","89371","survey-likert","70","908552","0.0-5.0-0.40","21","1","2022-11-29 21:24:49","2df368f4e41f066fd1c82c297b4a1108","201.188.97.38","Mozilla/5.0 (Windows NT 10.0; Win64; x64) AppleWebKit/537.36 (KHTML, like Gecko) Chrome/107.0.0.0 Safari/537.36 Edg/107.0.1418.56","WebKit","Edge","107.0.1418.56","Windows","10.0","[0]","","54","4",""
"2875","You drop a bowling ball on a cracker <br> T&uacute tiras una bola de boliche a una galleta","{""Q0"":1}","trial","89371","survey-likert","71","911431","0.0-5.0-0.41","21","1","2022-11-29 21:24:49","2df368f4e41f066fd1c82c297b4a1108","201.188.97.38","Mozilla/5.0 (Windows NT 10.0; Win64; x64) AppleWebKit/537.36 (KHTML, like Gecko) Chrome/107.0.0.0 Safari/537.36 Edg/107.0.1418.56","WebKit","Edge","107.0.1418.56","Windows","10.0","[0]","","4","1",""
"6916","You drop a bowling ball on a cracker <br> T&uacute tiras una bola de boliche a una galleta","{""Q0"":""Sueltas una bola de boliche sobre una galleta""}","low_rate","89371","survey-text","72","918351","0.0-5.0-1.41-0.41","21","1","2022-11-29 21:24:49","2df368f4e41f066fd1c82c297b4a1108","201.188.97.38","Mozilla/5.0 (Windows NT 10.0; Win64; x64) AppleWebKit/537.36 (KHTML, like Gecko) Chrome/107.0.0.0 Safari/537.36 Edg/107.0.1418.56","WebKit","Edge","107.0.1418.56","Windows","10.0","","","4","",""
"3975","You drop a watch on the laptop <br> T&uacute tiras un reloj al port&aacutetil","{""Q0"":1}","trial","89371","survey-likert","73","922327","0.0-5.0-0.42","21","1","2022-11-29 21:24:49","2df368f4e41f066fd1c82c297b4a1108","201.188.97.38","Mozilla/5.0 (Windows NT 10.0; Win64; x64) AppleWebKit/537.36 (KHTML, like Gecko) Chrome/107.0.0.0 Safari/537.36 Edg/107.0.1418.56","WebKit","Edge","107.0.1418.56","Windows","10.0","[0]","","37","1",""
"20619","You drop a watch on the laptop <br> T&uacute tiras un reloj al port&aacutetil","{""Q0"":""Sueltas un reloj sobre un laptop""}","low_rate","89371","survey-text","74","942950","0.0-5.0-1.42-0.42","21","1","2022-11-29 21:24:49","2df368f4e41f066fd1c82c297b4a1108","201.188.97.38","Mozilla/5.0 (Windows NT 10.0; Win64; x64) AppleWebKit/537.36 (KHTML, like Gecko) Chrome/107.0.0.0 Safari/537.36 Edg/107.0.1418.56","WebKit","Edge","107.0.1418.56","Windows","10.0","","","37","",""
"74774","You drop a fork on the plate <br> T&uacute tiras un tenedor al plato","{""Q0"":1}","trial","89371","survey-likert","75","1017727","0.0-5.0-0.43","21","1","2022-11-29 21:24:49","2df368f4e41f066fd1c82c297b4a1108","201.188.97.38","Mozilla/5.0 (Windows NT 10.0; Win64; x64) AppleWebKit/537.36 (KHTML, like Gecko) Chrome/107.0.0.0 Safari/537.36 Edg/107.0.1418.56","WebKit","Edge","107.0.1418.56","Windows","10.0","[0]","","26","1",""
"23420","You drop a fork on the plate <br> T&uacute tiras un tenedor al plato","{""Q0"":""Sueltas un tenedor sobre el plato""}","low_rate","89371","survey-text","76","1041151","0.0-5.0-1.43-0.43","21","1","2022-11-29 21:24:49","2df368f4e41f066fd1c82c297b4a1108","201.188.97.38","Mozilla/5.0 (Windows NT 10.0; Win64; x64) AppleWebKit/537.36 (KHTML, like Gecko) Chrome/107.0.0.0 Safari/537.36 Edg/107.0.1418.56","WebKit","Edge","107.0.1418.56","Windows","10.0","","","26","",""
"3574","You see how a man is boiling potatoes <br> T&uacute ves a un hombre est&aacute hirviendo papas","{""Q0"":4}","trial","89371","survey-likert","77","1044727","0.0-5.0-0.44","21","1","2022-11-29 21:24:49","2df368f4e41f066fd1c82c297b4a1108","201.188.97.38","Mozilla/5.0 (Windows NT 10.0; Win64; x64) AppleWebKit/537.36 (KHTML, like Gecko) Chrome/107.0.0.0 Safari/537.36 Edg/107.0.1418.56","WebKit","Edge","107.0.1418.56","Windows","10.0","[0]","","46","4",""
"6493","You drop a cabbage on the table <br> T&uacute tiras una col a la mesa","{""Q0"":1}","trial","89371","survey-likert","78","1051223","0.0-5.0-0.45","21","1","2022-11-29 21:24:49","2df368f4e41f066fd1c82c297b4a1108","201.188.97.38","Mozilla/5.0 (Windows NT 10.0; Win64; x64) AppleWebKit/537.36 (KHTML, like Gecko) Chrome/107.0.0.0 Safari/537.36 Edg/107.0.1418.56","WebKit","Edge","107.0.1418.56","Windows","10.0","[0]","","35","1",""
"13078","You drop a cabbage on the table <br> T&uacute tiras una col a la mesa","{""Q0"":""Sueltas una col sobre la mesa""}","low_rate","89371","survey-text","79","1064304","0.0-5.0-1.45-0.45","21","1","2022-11-29 21:24:49","2df368f4e41f066fd1c82c297b4a1108","201.188.97.38","Mozilla/5.0 (Windows NT 10.0; Win64; x64) AppleWebKit/537.36 (KHTML, like Gecko) Chrome/107.0.0.0 Safari/537.36 Edg/107.0.1418.56","WebKit","Edge","107.0.1418.56","Windows","10.0","","","35","",""
"3909","You drop a bowling ball on a chocolate ice-cream <br> T&uacute tiras una bola de boliche a un helado de chocolate","{""Q0"":1}","trial","89371","survey-likert","80","1068214","0.0-5.0-0.46","21","1","2022-11-29 21:24:49","2df368f4e41f066fd1c82c297b4a1108","201.188.97.38","Mozilla/5.0 (Windows NT 10.0; Win64; x64) AppleWebKit/537.36 (KHTML, like Gecko) Chrome/107.0.0.0 Safari/537.36 Edg/107.0.1418.56","WebKit","Edge","107.0.1418.56","Windows","10.0","[0]","","11","1",""
"8325","You drop a bowling ball on a chocolate ice-cream <br> T&uacute tiras una bola de boliche a un helado de chocolate","{""Q0"":""Sueltas una bola de boliche sobre un helado de chocolate""}","low_rate","89371","survey-text","81","1076543","0.0-5.0-1.46-0.46","21","1","2022-11-29 21:24:49","2df368f4e41f066fd1c82c297b4a1108","201.188.97.38","Mozilla/5.0 (Windows NT 10.0; Win64; x64) AppleWebKit/537.36 (KHTML, like Gecko) Chrome/107.0.0.0 Safari/537.36 Edg/107.0.1418.56","WebKit","Edge","107.0.1418.56","Windows","10.0","","","11","",""
"2718","You see how a giraffe is playing with a zebra <br> T&uacute ves como una jirafa est&aacute jugando con una cebra","{""Q0"":4}","trial","89371","survey-likert","82","1079263","0.0-5.0-0.47","21","1","2022-11-29 21:24:49","2df368f4e41f066fd1c82c297b4a1108","201.188.97.38","Mozilla/5.0 (Windows NT 10.0; Win64; x64) AppleWebKit/537.36 (KHTML, like Gecko) Chrome/107.0.0.0 Safari/537.36 Edg/107.0.1418.56","WebKit","Edge","107.0.1418.56","Windows","10.0","[0]","","65","4",""
"4901","You drop a remote on the rug <br> T&uacute tiras un control remoto a la alfombra","{""Q0"":1}","trial","89371","survey-likert","83","1084167","0.0-5.0-0.48","21","1","2022-11-29 21:24:49","2df368f4e41f066fd1c82c297b4a1108","201.188.97.38","Mozilla/5.0 (Windows NT 10.0; Win64; x64) AppleWebKit/537.36 (KHTML, like Gecko) Chrome/107.0.0.0 Safari/537.36 Edg/107.0.1418.56","WebKit","Edge","107.0.1418.56","Windows","10.0","[0]","","39","1",""
"11941","You drop a remote on the rug <br> T&uacute tiras un control remoto a la alfombra","{""Q0"":""Sueltas un control remoto sobre la alfombra""}","low_rate","89371","survey-text","84","1096111","0.0-5.0-1.48-0.48","21","1","2022-11-29 21:24:49","2df368f4e41f066fd1c82c297b4a1108","201.188.97.38","Mozilla/5.0 (Windows NT 10.0; Win64; x64) AppleWebKit/537.36 (KHTML, like Gecko) Chrome/107.0.0.0 Safari/537.36 Edg/107.0.1418.56","WebKit","Edge","107.0.1418.56","Windows","10.0","","","39","",""
"3861","You drop a bowling ball on a tile <br> T&uacute tiras una bola de boliche a una baldosa","{""Q0"":1}","trial","89371","survey-likert","85","1099975","0.0-5.0-0.49","21","1","2022-11-29 21:24:49","2df368f4e41f066fd1c82c297b4a1108","201.188.97.38","Mozilla/5.0 (Windows NT 10.0; Win64; x64) AppleWebKit/537.36 (KHTML, like Gecko) Chrome/107.0.0.0 Safari/537.36 Edg/107.0.1418.56","WebKit","Edge","107.0.1418.56","Windows","10.0","[0]","","22","1",""
"8117","You drop a bowling ball on a tile <br> T&uacute tiras una bola de boliche a una baldosa","{""Q0"":""Sueltas una bola de boliche sobre una baldosa""}","low_rate","89371","survey-text","86","1108095","0.0-5.0-1.49-0.49","21","1","2022-11-29 21:24:49","2df368f4e41f066fd1c82c297b4a1108","201.188.97.38","Mozilla/5.0 (Windows NT 10.0; Win64; x64) AppleWebKit/537.36 (KHTML, like Gecko) Chrome/107.0.0.0 Safari/537.36 Edg/107.0.1418.56","WebKit","Edge","107.0.1418.56","Windows","10.0","","","22","",""
"4054","You drop a cushion on the magazine <br> T&uacute tiras un coj&iacuten a la revista","{""Q0"":1}","trial","89371","survey-likert","87","1112151","0.0-5.0-0.50","21","1","2022-11-29 21:24:49","2df368f4e41f066fd1c82c297b4a1108","201.188.97.38","Mozilla/5.0 (Windows NT 10.0; Win64; x64) AppleWebKit/537.36 (KHTML, like Gecko) Chrome/107.0.0.0 Safari/537.36 Edg/107.0.1418.56","WebKit","Edge","107.0.1418.56","Windows","10.0","[0]","","38","1",""
"46349","You drop a cushion on the magazine <br> T&uacute tiras un coj&iacuten a la revista","{""Q0"":""Sueltas una revista sobre el piso""}","low_rate","89371","survey-text","88","1158503","0.0-5.0-1.50-0.50","21","1","2022-11-29 21:24:49","2df368f4e41f066fd1c82c297b4a1108","201.188.97.38","Mozilla/5.0 (Windows NT 10.0; Win64; x64) AppleWebKit/537.36 (KHTML, like Gecko) Chrome/107.0.0.0 Safari/537.36 Edg/107.0.1418.56","WebKit","Edge","107.0.1418.56","Windows","10.0","","","38","",""
"6558","You drop a bowling ball on a rice cake <br> T&uacute tiras una bola de boliche a una tortita de arroz","{""Q0"":1}","trial","89371","survey-likert","89","1165063","0.0-5.0-0.51","21","1","2022-11-29 21:24:49","2df368f4e41f066fd1c82c297b4a1108","201.188.97.38","Mozilla/5.0 (Windows NT 10.0; Win64; x64) AppleWebKit/537.36 (KHTML, like Gecko) Chrome/107.0.0.0 Safari/537.36 Edg/107.0.1418.56","WebKit","Edge","107.0.1418.56","Windows","10.0","[0]","","18","1",""
"16035","You drop a bowling ball on a rice cake <br> T&uacute tiras una bola de boliche a una tortita de arroz","{""Q0"":""Sueltas una bola de boliche sobre un pastel de arroz""}","low_rate","89371","survey-text","90","1181103","0.0-5.0-1.51-0.51","21","1","2022-11-29 21:24:49","2df368f4e41f066fd1c82c297b4a1108","201.188.97.38","Mozilla/5.0 (Windows NT 10.0; Win64; x64) AppleWebKit/537.36 (KHTML, like Gecko) Chrome/107.0.0.0 Safari/537.36 Edg/107.0.1418.56","WebKit","Edge","107.0.1418.56","Windows","10.0","","","18","",""
"4126","You drop a ring on the newspaper <br> T&uacute tiras un anillo al peri&oacutedico","{""Q0"":1}","trial","89371","survey-likert","91","1185231","0.0-5.0-0.52","21","1","2022-11-29 21:24:49","2df368f4e41f066fd1c82c297b4a1108","201.188.97.38","Mozilla/5.0 (Windows NT 10.0; Win64; x64) AppleWebKit/537.36 (KHTML, like Gecko) Chrome/107.0.0.0 Safari/537.36 Edg/107.0.1418.56","WebKit","Edge","107.0.1418.56","Windows","10.0","[0]","","41","1",""
"20813","You drop a ring on the newspaper <br> T&uacute tiras un anillo al peri&oacutedico","{""Q0"":""Sueltas un anillo sobre el diario""}","low_rate","89371","survey-text","92","1206047","0.0-5.0-1.52-0.52","21","1","2022-11-29 21:24:49","2df368f4e41f066fd1c82c297b4a1108","201.188.97.38","Mozilla/5.0 (Windows NT 10.0; Win64; x64) AppleWebKit/537.36 (KHTML, like Gecko) Chrome/107.0.0.0 Safari/537.36 Edg/107.0.1418.56","WebKit","Edge","107.0.1418.56","Windows","10.0","","","41","",""
"3022","You drop a bowling ball on an egg <br> T&uacute tiras una bola de boliche a un huevo","{""Q0"":1}","trial","89371","survey-likert","93","1209071","0.0-5.0-0.53","21","1","2022-11-29 21:24:49","2df368f4e41f066fd1c82c297b4a1108","201.188.97.38","Mozilla/5.0 (Windows NT 10.0; Win64; x64) AppleWebKit/537.36 (KHTML, like Gecko) Chrome/107.0.0.0 Safari/537.36 Edg/107.0.1418.56","WebKit","Edge","107.0.1418.56","Windows","10.0","[0]","","6","1",""
"4533","You drop a bowling ball on an egg <br> T&uacute tiras una bola de boliche a un huevo","{""Q0"":""Sueltas una bola de boliche sobre un huevo""}","low_rate","89371","survey-text","94","1213607","0.0-5.0-1.53-0.53","21","1","2022-11-29 21:24:49","2df368f4e41f066fd1c82c297b4a1108","201.188.97.38","Mozilla/5.0 (Windows NT 10.0; Win64; x64) AppleWebKit/537.36 (KHTML, like Gecko) Chrome/107.0.0.0 Safari/537.36 Edg/107.0.1418.56","WebKit","Edge","107.0.1418.56","Windows","10.0","","","6","",""
"6310","You see how a woman is taking money out of a wallet <br> T&uacute ves como una mujer est&aacute sacando dinero de su billetera","{""Q0"":3}","trial","89371","survey-likert","95","1219919","0.0-5.0-0.54","21","1","2022-11-29 21:24:49","2df368f4e41f066fd1c82c297b4a1108","201.188.97.38","Mozilla/5.0 (Windows NT 10.0; Win64; x64) AppleWebKit/537.36 (KHTML, like Gecko) Chrome/107.0.0.0 Safari/537.36 Edg/107.0.1418.56","WebKit","Edge","107.0.1418.56","Windows","10.0","[0]","","44","3",""
"5645","You see how an astronaut is putting on a space suit <br> T&uacute ves como un astronauta se est&aacute poniendo su traje espacial","{""Q0"":3}","trial","89371","survey-likert","96","1225567","0.0-5.0-0.55","21","1","2022-11-29 21:24:49","2df368f4e41f066fd1c82c297b4a1108","201.188.97.38","Mozilla/5.0 (Windows NT 10.0; Win64; x64) AppleWebKit/537.36 (KHTML, like Gecko) Chrome/107.0.0.0 Safari/537.36 Edg/107.0.1418.56","WebKit","Edge","107.0.1418.56","Windows","10.0","[0]","","33","3",""
"6158","You drop a bowling ball on a piece of sushi <br> T&uacute tiras una bola de boliche a un pedazo de sushi","{""Q0"":1}","trial","89371","survey-likert","97","1231727","0.0-5.0-0.56","21","1","2022-11-29 21:24:49","2df368f4e41f066fd1c82c297b4a1108","201.188.97.38","Mozilla/5.0 (Windows NT 10.0; Win64; x64) AppleWebKit/537.36 (KHTML, like Gecko) Chrome/107.0.0.0 Safari/537.36 Edg/107.0.1418.56","WebKit","Edge","107.0.1418.56","Windows","10.0","[0]","","21","1",""
"16115","You drop a bowling ball on a piece of sushi <br> T&uacute tiras una bola de boliche a un pedazo de sushi","{""Q0"":""Sueltas una bola de boliche sobre un trozo de sushi""}","low_rate","89371","survey-text","98","1247847","0.0-5.0-1.56-0.56","21","1","2022-11-29 21:24:49","2df368f4e41f066fd1c82c297b4a1108","201.188.97.38","Mozilla/5.0 (Windows NT 10.0; Win64; x64) AppleWebKit/537.36 (KHTML, like Gecko) Chrome/107.0.0.0 Safari/537.36 Edg/107.0.1418.56","WebKit","Edge","107.0.1418.56","Windows","10.0","","","21","",""
"5205","You drop a bowling ball on a hat <br> T&uacute tiras una bola de boliche a una gorra","{""Q0"":1}","trial","89371","survey-likert","99","1253055","0.0-5.0-0.57","21","1","2022-11-29 21:24:49","2df368f4e41f066fd1c82c297b4a1108","201.188.97.38","Mozilla/5.0 (Windows NT 10.0; Win64; x64) AppleWebKit/537.36 (KHTML, like Gecko) Chrome/107.0.0.0 Safari/537.36 Edg/107.0.1418.56","WebKit","Edge","107.0.1418.56","Windows","10.0","[0]","","10","1",""
"5853","You drop a bowling ball on a hat <br> T&uacute tiras una bola de boliche a una gorra","{""Q0"":""Sueltas una bola de boliche sobre un sombrero""}","low_rate","89371","survey-text","100","1258911","0.0-5.0-1.57-0.57","21","1","2022-11-29 21:24:49","2df368f4e41f066fd1c82c297b4a1108","201.188.97.38","Mozilla/5.0 (Windows NT 10.0; Win64; x64) AppleWebKit/537.36 (KHTML, like Gecko) Chrome/107.0.0.0 Safari/537.36 Edg/107.0.1418.56","WebKit","Edge","107.0.1418.56","Windows","10.0","","","10","",""
"3358","You drop a needle on the mouse pad <br> T&uacute tiras una aguja a la alfombrilla para el rat&oacuten","{""Q0"":1}","trial","89371","survey-likert","101","1262271","0.0-5.0-0.58","21","1","2022-11-29 21:24:49","2df368f4e41f066fd1c82c297b4a1108","201.188.97.38","Mozilla/5.0 (Windows NT 10.0; Win64; x64) AppleWebKit/537.36 (KHTML, like Gecko) Chrome/107.0.0.0 Safari/537.36 Edg/107.0.1418.56","WebKit","Edge","107.0.1418.56","Windows","10.0","[0]","","42","1",""
"16253","You drop a needle on the mouse pad <br> T&uacute tiras una aguja a la alfombrilla para el rat&oacuten","{""Q0"":""Sueltas una aguja sobre el mousepad""}","low_rate","89371","survey-text","102","1278527","0.0-5.0-1.58-0.58","21","1","2022-11-29 21:24:49","2df368f4e41f066fd1c82c297b4a1108","201.188.97.38","Mozilla/5.0 (Windows NT 10.0; Win64; x64) AppleWebKit/537.36 (KHTML, like Gecko) Chrome/107.0.0.0 Safari/537.36 Edg/107.0.1418.56","WebKit","Edge","107.0.1418.56","Windows","10.0","","","42","",""
"6670","You see how an actress is taking a microphone <br> T&uacute ves como una actriz est&aacute agarrando el micr&oacutefono","{""Q0"":3}","trial","89371","survey-likert","103","1285199","0.0-5.0-0.59","21","1","2022-11-29 21:24:49","2df368f4e41f066fd1c82c297b4a1108","201.188.97.38","Mozilla/5.0 (Windows NT 10.0; Win64; x64) AppleWebKit/537.36 (KHTML, like Gecko) Chrome/107.0.0.0 Safari/537.36 Edg/107.0.1418.56","WebKit","Edge","107.0.1418.56","Windows","10.0","[0]","","51","3",""
"4501","You see how a pilot is reading a book <br> T&uacute ves como un piloto est&aacute leyendo un libro","{""Q0"":4}","trial","89371","survey-likert","104","1289703","0.0-5.0-0.60","21","1","2022-11-29 21:24:49","2df368f4e41f066fd1c82c297b4a1108","201.188.97.38","Mozilla/5.0 (Windows NT 10.0; Win64; x64) AppleWebKit/537.36 (KHTML, like Gecko) Chrome/107.0.0.0 Safari/537.36 Edg/107.0.1418.56","WebKit","Edge","107.0.1418.56","Windows","10.0","[0]","","61","4",""
"4948","You see how a musician is playing a guitar <br> T&uacute ves como un m&uacutesico est&aacute tocando la guitarra","{""Q0"":4}","trial","89371","survey-likert","105","1294655","0.0-5.0-0.61","21","1","2022-11-29 21:24:49","2df368f4e41f066fd1c82c297b4a1108","201.188.97.38","Mozilla/5.0 (Windows NT 10.0; Win64; x64) AppleWebKit/537.36 (KHTML, like Gecko) Chrome/107.0.0.0 Safari/537.36 Edg/107.0.1418.56","WebKit","Edge","107.0.1418.56","Windows","10.0","[0]","","27","4",""
"4012","You drop a bowling ball on a blackberry <br> T&uacute tiras una bola de boliche a una mora","{""Q0"":1}","trial","89371","survey-likert","106","1298671","0.0-5.0-0.62","21","1","2022-11-29 21:24:49","2df368f4e41f066fd1c82c297b4a1108","201.188.97.38","Mozilla/5.0 (Windows NT 10.0; Win64; x64) AppleWebKit/537.36 (KHTML, like Gecko) Chrome/107.0.0.0 Safari/537.36 Edg/107.0.1418.56","WebKit","Edge","107.0.1418.56","Windows","10.0","[0]","","8","1",""
"4260","You drop a bowling ball on a blackberry <br> T&uacute tiras una bola de boliche a una mora","{""Q0"":""Sueltas una bola de boliche sobre una mora""}","low_rate","89371","survey-text","107","1302935","0.0-5.0-1.62-0.62","21","1","2022-11-29 21:24:49","2df368f4e41f066fd1c82c297b4a1108","201.188.97.38","Mozilla/5.0 (Windows NT 10.0; Win64; x64) AppleWebKit/537.36 (KHTML, like Gecko) Chrome/107.0.0.0 Safari/537.36 Edg/107.0.1418.56","WebKit","Edge","107.0.1418.56","Windows","10.0","","","8","",""
"4478","You see how a cat is drinking water from a bowl <br> T&uacute ves como un gato est&aacute bebiendo agua de un cuenco","{""Q0"":4}","trial","89371","survey-likert","108","1307415","0.0-5.0-0.63","21","1","2022-11-29 21:24:49","2df368f4e41f066fd1c82c297b4a1108","201.188.97.38","Mozilla/5.0 (Windows NT 10.0; Win64; x64) AppleWebKit/537.36 (KHTML, like Gecko) Chrome/107.0.0.0 Safari/537.36 Edg/107.0.1418.56","WebKit","Edge","107.0.1418.56","Windows","10.0","[0]","","28","4",""
"3725","You drop a bowling ball on an iPAD <br> T&uacute tiras una bola de boliche a un iPad","{""Q0"":1}","trial","89371","survey-likert","109","1311143","0.0-5.0-0.64","21","1","2022-11-29 21:24:49","2df368f4e41f066fd1c82c297b4a1108","201.188.97.38","Mozilla/5.0 (Windows NT 10.0; Win64; x64) AppleWebKit/537.36 (KHTML, like Gecko) Chrome/107.0.0.0 Safari/537.36 Edg/107.0.1418.56","WebKit","Edge","107.0.1418.56","Windows","10.0","[0]","","12","1",""
"4557","You drop a bowling ball on an iPAD <br> T&uacute tiras una bola de boliche a un iPad","{""Q0"":""Sueltas una bola de boliche sobre un iPad""}","low_rate","89371","survey-text","110","1315703","0.0-5.0-1.64-0.64","21","1","2022-11-29 21:24:49","2df368f4e41f066fd1c82c297b4a1108","201.188.97.38","Mozilla/5.0 (Windows NT 10.0; Win64; x64) AppleWebKit/537.36 (KHTML, like Gecko) Chrome/107.0.0.0 Safari/537.36 Edg/107.0.1418.56","WebKit","Edge","107.0.1418.56","Windows","10.0","","","12","",""
"4357","You see how a kitten is playing in the sandbox <br> T&uacute ves como un gatito est&aacute jugando en la caja de arena","{""Q0"":4}","trial","89371","survey-likert","111","1320063","0.0-5.0-0.65","21","1","2022-11-29 21:24:49","2df368f4e41f066fd1c82c297b4a1108","201.188.97.38","Mozilla/5.0 (Windows NT 10.0; Win64; x64) AppleWebKit/537.36 (KHTML, like Gecko) Chrome/107.0.0.0 Safari/537.36 Edg/107.0.1418.56","WebKit","Edge","107.0.1418.56","Windows","10.0","[0]","","52","4",""
"2437","You drop a bowling ball on a porcelain figure <br> T&uacute tiras una bola de boliche a una figura de porcelana","{""Q0"":1}","trial","89371","survey-likert","112","1322503","0.0-5.0-0.66","21","1","2022-11-29 21:24:49","2df368f4e41f066fd1c82c297b4a1108","201.188.97.38","Mozilla/5.0 (Windows NT 10.0; Win64; x64) AppleWebKit/537.36 (KHTML, like Gecko) Chrome/107.0.0.0 Safari/537.36 Edg/107.0.1418.56","WebKit","Edge","107.0.1418.56","Windows","10.0","[0]","","1","1",""
"6028","You drop a bowling ball on a porcelain figure <br> T&uacute tiras una bola de boliche a una figura de porcelana","{""Q0"":""Sueltas una bola de boliche sobre una figura de porcelana""}","low_rate","89371","survey-text","113","1328535","0.0-5.0-1.66-0.66","21","1","2022-11-29 21:24:49","2df368f4e41f066fd1c82c297b4a1108","201.188.97.38","Mozilla/5.0 (Windows NT 10.0; Win64; x64) AppleWebKit/537.36 (KHTML, like Gecko) Chrome/107.0.0.0 Safari/537.36 Edg/107.0.1418.56","WebKit","Edge","107.0.1418.56","Windows","10.0","","","1","",""
"2622","You drop a bowling ball on glasses <br> T&uacute tiras una bola de boliche a unas gafas","{""Q0"":1}","trial","89371","survey-likert","114","1331159","0.0-5.0-0.67","21","1","2022-11-29 21:24:49","2df368f4e41f066fd1c82c297b4a1108","201.188.97.38","Mozilla/5.0 (Windows NT 10.0; Win64; x64) AppleWebKit/537.36 (KHTML, like Gecko) Chrome/107.0.0.0 Safari/537.36 Edg/107.0.1418.56","WebKit","Edge","107.0.1418.56","Windows","10.0","[0]","","9","1",""
"7436","You drop a bowling ball on glasses <br> T&uacute tiras una bola de boliche a unas gafas","{""Q0"":""Sueltas una bola de boliche sobre unos lentes""}","low_rate","89371","survey-text","115","1338599","0.0-5.0-1.67-0.67","21","1","2022-11-29 21:24:49","2df368f4e41f066fd1c82c297b4a1108","201.188.97.38","Mozilla/5.0 (Windows NT 10.0; Win64; x64) AppleWebKit/537.36 (KHTML, like Gecko) Chrome/107.0.0.0 Safari/537.36 Edg/107.0.1418.56","WebKit","Edge","107.0.1418.56","Windows","10.0","","","9","",""
"3758","You see how a president is writing in the notebook <br> T&uacute ves como un presidente est&aacute escribiendo en la libreta","{""Q0"":4}","trial","89371","survey-likert","116","1342359","0.0-5.0-0.68","21","1","2022-11-29 21:24:49","2df368f4e41f066fd1c82c297b4a1108","201.188.97.38","Mozilla/5.0 (Windows NT 10.0; Win64; x64) AppleWebKit/537.36 (KHTML, like Gecko) Chrome/107.0.0.0 Safari/537.36 Edg/107.0.1418.56","WebKit","Edge","107.0.1418.56","Windows","10.0","[0]","","63","4",""
"2916","You see how a cook is taking a knife <br> T&uacute ves como un cocinero est&aacute agarrando un cuchillo","{""Q0"":4}","trial","89371","survey-likert","117","1345279","0.0-5.0-0.69","21","1","2022-11-29 21:24:49","2df368f4e41f066fd1c82c297b4a1108","201.188.97.38","Mozilla/5.0 (Windows NT 10.0; Win64; x64) AppleWebKit/537.36 (KHTML, like Gecko) Chrome/107.0.0.0 Safari/537.36 Edg/107.0.1418.56","WebKit","Edge","107.0.1418.56","Windows","10.0","[0]","","71","4",""
"3053","You drop a bowling ball on an empty can of beer <br> T&uacute tiras una bola de boliche a una lata de cerveza vac&iacutea","{""Q0"":1}","trial","89371","survey-likert","118","1348335","0.0-5.0-0.70","21","1","2022-11-29 21:24:49","2df368f4e41f066fd1c82c297b4a1108","201.188.97.38","Mozilla/5.0 (Windows NT 10.0; Win64; x64) AppleWebKit/537.36 (KHTML, like Gecko) Chrome/107.0.0.0 Safari/537.36 Edg/107.0.1418.56","WebKit","Edge","107.0.1418.56","Windows","10.0","[0]","","3","1",""
"16084","You drop a bowling ball on an empty can of beer <br> T&uacute tiras una bola de boliche a una lata de cerveza vac&iacutea","{""Q0"":""Sueltas una bola de boliche sobre una lata de cerveza vacía""}","low_rate","89371","survey-text","119","1364423","0.0-5.0-1.70-0.70","21","1","2022-11-29 21:24:49","2df368f4e41f066fd1c82c297b4a1108","201.188.97.38","Mozilla/5.0 (Windows NT 10.0; Win64; x64) AppleWebKit/537.36 (KHTML, like Gecko) Chrome/107.0.0.0 Safari/537.36 Edg/107.0.1418.56","WebKit","Edge","107.0.1418.56","Windows","10.0","","","3","",""
"101613","You drop a pencil on the shoe <br> T&uacute tiras un l&aacutepiz al zapato","{""Q0"":1}","trial","89371","survey-likert","120","1466039","0.0-5.0-0.71","21","1","2022-11-29 21:24:49","2df368f4e41f066fd1c82c297b4a1108","201.188.97.38","Mozilla/5.0 (Windows NT 10.0; Win64; x64) AppleWebKit/537.36 (KHTML, like Gecko) Chrome/107.0.0.0 Safari/537.36 Edg/107.0.1418.56","WebKit","Edge","107.0.1418.56","Windows","10.0","[0]","","40","1",""
"11292","You drop a pencil on the shoe <br> T&uacute tiras un l&aacutepiz al zapato","{""Q0"":""Sueltas un lápiz sobre el zapato""}","low_rate","89371","survey-text","121","1477335","0.0-5.0-1.71-0.71","21","1","2022-11-29 21:24:49","2df368f4e41f066fd1c82c297b4a1108","201.188.97.38","Mozilla/5.0 (Windows NT 10.0; Win64; x64) AppleWebKit/537.36 (KHTML, like Gecko) Chrome/107.0.0.0 Safari/537.36 Edg/107.0.1418.56","WebKit","Edge","107.0.1418.56","Windows","10.0","","","40","",""
"2854","
    <p style=""font-size:20px;""> You have completed the experiment portion! </p>
    <p style=""font-size:20px;""> Before you are done, we would like you to answer some basic demographic questions. </p>
    <p style=""font-size:20px;""> Note that your answers to these questions will not affect your compensation/credit. </p>
    <p style=""font-size:20px;""> Click the button below to continue.</p>
    ","0","demo","89371","html-button-response","122","1480193","0.0-6.0","21","1","2022-11-29 21:24:49","2df368f4e41f066fd1c82c297b4a1108","201.188.97.38","Mozilla/5.0 (Windows NT 10.0; Win64; x64) AppleWebKit/537.36 (KHTML, like Gecko) Chrome/107.0.0.0 Safari/537.36 Edg/107.0.1418.56","WebKit","Edge","107.0.1418.56","Windows","10.0","","","","",""
"14460","","{""Age"":""26"",""Gender"":""Male"",""Education"":""14""}","demo","89371","survey-text","123","1494656","0.0-7.0-0.0","21","1","2022-11-29 21:24:49","2df368f4e41f066fd1c82c297b4a1108","201.188.97.38","Mozilla/5.0 (Windows NT 10.0; Win64; x64) AppleWebKit/537.36 (KHTML, like Gecko) Chrome/107.0.0.0 Safari/537.36 Edg/107.0.1418.56","WebKit","Edge","107.0.1418.56","Windows","10.0","","","","",""
"10435","","{""Race"":[""More than once race""]}","demo","89371","survey-multi-select","124","1505095","0.0-7.0-1.0","21","1","2022-11-29 21:24:49","2df368f4e41f066fd1c82c297b4a1108","201.188.97.38","Mozilla/5.0 (Windows NT 10.0; Win64; x64) AppleWebKit/537.36 (KHTML, like Gecko) Chrome/107.0.0.0 Safari/537.36 Edg/107.0.1418.56","WebKit","Edge","107.0.1418.56","Windows","10.0","[0]","","","",""
"12388","","{""Latino"":""Yes"",""Alert"":""Evening""}","demo","89371","survey-multi-choice","125","1517487","0.0-7.0-2.0","21","1","2022-11-29 21:24:49","2df368f4e41f066fd1c82c297b4a1108","201.188.97.38","Mozilla/5.0 (Windows NT 10.0; Win64; x64) AppleWebKit/537.36 (KHTML, like Gecko) Chrome/107.0.0.0 Safari/537.36 Edg/107.0.1418.56","WebKit","Edge","107.0.1418.56","Windows","10.0","[0,1]","","","",""
"10675","","{""Q0"":""i didn't sleep much""}","demo","89371","survey-text","126","1528167","0.0-7.0-3.0","21","1","2022-11-29 21:24:49","2df368f4e41f066fd1c82c297b4a1108","201.188.97.38","Mozilla/5.0 (Windows NT 10.0; Win64; x64) AppleWebKit/537.36 (KHTML, like Gecko) Chrome/107.0.0.0 Safari/537.36 Edg/107.0.1418.56","WebKit","Edge","107.0.1418.56","Windows","10.0","","","","",""
"18637","<p>Thank you for participating! </p><strong>Your completion code is: CXEJB7NH. Please copy-paste this code and submit it on Prolific.</strong><p>Click <a href=""https://drive.google.com/file/d/1c70cdHFlc0AaR6RujLWLJwWkv1RbHQJY/view?usp=sharing"" target=""_blank"" rel=""noopener noreferrer"">here</a> to access the debriefing form and know more about our research. <p> Please click the button below to finish the experiment and save your data.</p> <p> IMPORTANT: Please <strong>do not leave this page </strong> without clicking the button below.</p> <p> You may close the tab/window after you click the button below.","0","","","html-button-response","127","1546807","0.0-8.0","21","1","2022-11-29 21:24:49","2df368f4e41f066fd1c82c297b4a1108","201.188.97.38","Mozilla/5.0 (Windows NT 10.0; Win64; x64) AppleWebKit/537.36 (KHTML, like Gecko) Chrome/107.0.0.0 Safari/537.36 Edg/107.0.1418.56","WebKit","Edge","107.0.1418.56","Windows","10.0","","","","",""
