"rt","stimulus","response","typeoftrial","subject","trial_type","trial_index","time_elapsed","internal_node_id","run_id","condition","recorded_at","source_code_version","ip","user_agent","device","browser","browser_version","platform","platform_version","question_order","practice_rating","sentence_num","rating","Experiment"
"4517","
        <p style=""font-size:20px;""> Welcome! Thank you for your interest in our study. </p>
        <p style=""font-size:20px;""> This study is being conducted by researchers at Bowdoin College.</p>
        <p style=""font-size:20px;""> In this experiment, you will be asked to rate the accuracy of English and Spanish translations.</p>
        <p style=""font-size:20px;""> The entire experiment should not last more than 20 minutes. You will be paid $3 USD for your participation. </p>
        <p style=""font-size:20px;""> Please click <a href = ""https://drive.google.com/file/d/1L92a02eEKCpaAEipmqDcBCDR7rsarqFE/view?usp=sharing"" target = ""_blank"">here</a> to read the full consent form. </p>
        <p style=""font-size:20px;""> If you agree to participate, please click the button below to continue to experiment instructions.</p>
        ","0","consent","37572","html-button-response","0","4523","0.0-0.0","25","1","2022-11-29 21:24:52","2df368f4e41f066fd1c82c297b4a1108","189.152.206.94","Mozilla/5.0 (Windows NT 10.0; Win64; x64) AppleWebKit/537.36 (KHTML, like Gecko) Chrome/107.0.0.0 Safari/537.36","WebKit","Chrome","107.0.0.0","Windows","10.0","","","","",""
"7262","","{""ID"":""613a7642d3ecae4c93999725""}","ID","37572","survey-text","1","11794","0.0-1.0","25","1","2022-11-29 21:24:52","2df368f4e41f066fd1c82c297b4a1108","189.152.206.94","Mozilla/5.0 (Windows NT 10.0; Win64; x64) AppleWebKit/537.36 (KHTML, like Gecko) Chrome/107.0.0.0 Safari/537.36","WebKit","Chrome","107.0.0.0","Windows","10.0","","","","",""
"8691","
        <p style=""font-size:20px;""> You are about to begin the practice test. </p>
        <p style=""font-size:20px;""> On each trial, you will see a sentence in English and its corresponding Spanish translation. </p>
        <p style=""font-size:20px;""> You will rate the accuracy of the translation on a scale from ""Not at all accurate"" to ""Very accurate."" </p>
        <p style=""font-size:20px;""> If you rate the translation as ""Somewhat innaccurate"" or ""Not at all accurate,"" you will be asked to provide your own translation or a reason why the translation is inaccurate. </p>
        <p style=""font-size:20px;""> Click the button below to continue to the practice session.</p>","0","instructions","37572","html-button-response","2","20487","0.0-2.0","25","1","2022-11-29 21:24:52","2df368f4e41f066fd1c82c297b4a1108","189.152.206.94","Mozilla/5.0 (Windows NT 10.0; Win64; x64) AppleWebKit/537.36 (KHTML, like Gecko) Chrome/107.0.0.0 Safari/537.36","WebKit","Chrome","107.0.0.0","Windows","10.0","","","","",""
"11697","You drop a rock on a phone <br> T&uacute tiras una piedra a un tel&eacutefono","{""Q0"":1}","practice","37572","survey-likert","3","32188","0.0-3.0-0.0","25","1","2022-11-29 21:24:52","2df368f4e41f066fd1c82c297b4a1108","189.152.206.94","Mozilla/5.0 (Windows NT 10.0; Win64; x64) AppleWebKit/537.36 (KHTML, like Gecko) Chrome/107.0.0.0 Safari/537.36","WebKit","Chrome","107.0.0.0","Windows","10.0","[0]","1","","",""
"10531","You drop a rock on a phone <br> T&uacute tiras una piedra a un tel&eacutefono","{""Q0"":""Dejas caer una piedra en el teléfono""}","practice_low_rate","37572","survey-text","4","42732","0.0-3.0-1.0-0.0","25","1","2022-11-29 21:24:52","2df368f4e41f066fd1c82c297b4a1108","189.152.206.94","Mozilla/5.0 (Windows NT 10.0; Win64; x64) AppleWebKit/537.36 (KHTML, like Gecko) Chrome/107.0.0.0 Safari/537.36","WebKit","Chrome","107.0.0.0","Windows","10.0","","","1","",""
"7945","You see how a duck is playing with a pumpkin <br> T&uacute ves como un pato est&aacute jugando con una calabaza","{""Q0"":4}","practice","37572","survey-likert","5","50681","0.0-3.0-0.1","25","1","2022-11-29 21:24:52","2df368f4e41f066fd1c82c297b4a1108","189.152.206.94","Mozilla/5.0 (Windows NT 10.0; Win64; x64) AppleWebKit/537.36 (KHTML, like Gecko) Chrome/107.0.0.0 Safari/537.36","WebKit","Chrome","107.0.0.0","Windows","10.0","[0]","4","","",""
"8558","You see how an artist is running <br> T&uacute ves como un artista est&aacute corriendo","{""Q0"":3}","practice","37572","survey-likert","6","59248","0.0-3.0-0.2","25","1","2022-11-29 21:24:52","2df368f4e41f066fd1c82c297b4a1108","189.152.206.94","Mozilla/5.0 (Windows NT 10.0; Win64; x64) AppleWebKit/537.36 (KHTML, like Gecko) Chrome/107.0.0.0 Safari/537.36","WebKit","Chrome","107.0.0.0","Windows","10.0","[0]","3","","",""
"8520","You see how a tiger is playing with a goose <br> T&uacute ves como un le&oacuten come una pizza","{""Q0"":0}","practice","37572","survey-likert","7","67777","0.0-3.0-0.3","25","1","2022-11-29 21:24:52","2df368f4e41f066fd1c82c297b4a1108","189.152.206.94","Mozilla/5.0 (Windows NT 10.0; Win64; x64) AppleWebKit/537.36 (KHTML, like Gecko) Chrome/107.0.0.0 Safari/537.36","WebKit","Chrome","107.0.0.0","Windows","10.0","[0]","0","","",""
"9767","You see how a tiger is playing with a goose <br> T&uacute ves como un le&oacuten come una pizza","{""Q0"":""tú ves como un tigre juega con un ganso""}","practice_low_rate","37572","survey-text","8","77554","0.0-3.0-1.3-0.3","25","1","2022-11-29 21:24:52","2df368f4e41f066fd1c82c297b4a1108","189.152.206.94","Mozilla/5.0 (Windows NT 10.0; Win64; x64) AppleWebKit/537.36 (KHTML, like Gecko) Chrome/107.0.0.0 Safari/537.36","WebKit","Chrome","107.0.0.0","Windows","10.0","","","5","",""
"7304","You drop a bowling ball on a mircrowave <br> T&uacute tiras una bola de boliche a un horno","{""Q0"":1}","practice","37572","survey-likert","9","84862","0.0-3.0-0.4","25","1","2022-11-29 21:24:52","2df368f4e41f066fd1c82c297b4a1108","189.152.206.94","Mozilla/5.0 (Windows NT 10.0; Win64; x64) AppleWebKit/537.36 (KHTML, like Gecko) Chrome/107.0.0.0 Safari/537.36","WebKit","Chrome","107.0.0.0","Windows","10.0","[0]","1","","",""
"6599","You drop a bowling ball on a mircrowave <br> T&uacute tiras una bola de boliche a un horno","{""Q0"":""tú dejas caer una bola de boliche en un microondas""}","practice_low_rate","37572","survey-text","10","91472","0.0-3.0-1.4-0.4","25","1","2022-11-29 21:24:52","2df368f4e41f066fd1c82c297b4a1108","189.152.206.94","Mozilla/5.0 (Windows NT 10.0; Win64; x64) AppleWebKit/537.36 (KHTML, like Gecko) Chrome/107.0.0.0 Safari/537.36","WebKit","Chrome","107.0.0.0","Windows","10.0","","","6","",""
"13139","You see how a teacher is drawing a picture <br> T&uacute ves como un maestro pinta una foto","{""Q0"":2}","practice","37572","survey-likert","11","104614","0.0-3.0-0.5","25","1","2022-11-29 21:24:52","2df368f4e41f066fd1c82c297b4a1108","189.152.206.94","Mozilla/5.0 (Windows NT 10.0; Win64; x64) AppleWebKit/537.36 (KHTML, like Gecko) Chrome/107.0.0.0 Safari/537.36","WebKit","Chrome","107.0.0.0","Windows","10.0","[0]","2","","",""
"2220","<p style=""font-size:20px;"">You have now completed the practice session! </p>
        <p style=""font-size:20px;"">You will now move on to the main experiment. </p>
        <p style=""font-size:20px;"">Please click the button below to continue. </p>","0","movetoexp","37572","html-button-response","12","106843","0.0-4.0","25","1","2022-11-29 21:24:52","2df368f4e41f066fd1c82c297b4a1108","189.152.206.94","Mozilla/5.0 (Windows NT 10.0; Win64; x64) AppleWebKit/537.36 (KHTML, like Gecko) Chrome/107.0.0.0 Safari/537.36","WebKit","Chrome","107.0.0.0","Windows","10.0","","","","",""
"9024","You drop a cushion on the magazine <br> T&uacute tiras un coj&iacuten a la revista","{""Q0"":3}","trial","37572","survey-likert","13","115870","0.0-5.0-0.0","25","1","2022-11-29 21:24:52","2df368f4e41f066fd1c82c297b4a1108","189.152.206.94","Mozilla/5.0 (Windows NT 10.0; Win64; x64) AppleWebKit/537.36 (KHTML, like Gecko) Chrome/107.0.0.0 Safari/537.36","WebKit","Chrome","107.0.0.0","Windows","10.0","[0]","","38","3",""
"4838","You see how a thief is stealing a wallet <br> T&uacute ves como un ladr&oacuten est&aacute robando una billetera","{""Q0"":4}","trial","37572","survey-likert","14","120718","0.0-5.0-0.1","25","1","2022-11-29 21:24:52","2df368f4e41f066fd1c82c297b4a1108","189.152.206.94","Mozilla/5.0 (Windows NT 10.0; Win64; x64) AppleWebKit/537.36 (KHTML, like Gecko) Chrome/107.0.0.0 Safari/537.36","WebKit","Chrome","107.0.0.0","Windows","10.0","[0]","","68","4",""
"9109","You drop a bowling ball on an iPAD <br> T&uacute tiras una bola de boliche a un iPad","{""Q0"":1}","trial","37572","survey-likert","15","129836","0.0-5.0-0.2","25","1","2022-11-29 21:24:52","2df368f4e41f066fd1c82c297b4a1108","189.152.206.94","Mozilla/5.0 (Windows NT 10.0; Win64; x64) AppleWebKit/537.36 (KHTML, like Gecko) Chrome/107.0.0.0 Safari/537.36","WebKit","Chrome","107.0.0.0","Windows","10.0","[0]","","12","1",""
"8011","You drop a bowling ball on an iPAD <br> T&uacute tiras una bola de boliche a un iPad","{""Q0"":""tú dejas caer una bola de boliche en un ipad""}","low_rate","37572","survey-text","16","137858","0.0-5.0-1.2-0.2","25","1","2022-11-29 21:24:52","2df368f4e41f066fd1c82c297b4a1108","189.152.206.94","Mozilla/5.0 (Windows NT 10.0; Win64; x64) AppleWebKit/537.36 (KHTML, like Gecko) Chrome/107.0.0.0 Safari/537.36","WebKit","Chrome","107.0.0.0","Windows","10.0","","","12","",""
"3529","You see how a kitten is playing in the sandbox <br> T&uacute ves como un gatito est&aacute jugando en la caja de arena","{""Q0"":4}","trial","37572","survey-likert","17","141390","0.0-5.0-0.3","25","1","2022-11-29 21:24:52","2df368f4e41f066fd1c82c297b4a1108","189.152.206.94","Mozilla/5.0 (Windows NT 10.0; Win64; x64) AppleWebKit/537.36 (KHTML, like Gecko) Chrome/107.0.0.0 Safari/537.36","WebKit","Chrome","107.0.0.0","Windows","10.0","[0]","","52","4",""
"5762","You see how a horse is chewing hay <br> T&uacute ves como un caballo est&aacute masticando el heno","{""Q0"":3}","trial","37572","survey-likert","18","147162","0.0-5.0-0.4","25","1","2022-11-29 21:24:52","2df368f4e41f066fd1c82c297b4a1108","189.152.206.94","Mozilla/5.0 (Windows NT 10.0; Win64; x64) AppleWebKit/537.36 (KHTML, like Gecko) Chrome/107.0.0.0 Safari/537.36","WebKit","Chrome","107.0.0.0","Windows","10.0","[0]","","55","3",""
"10218","You drop a bowling ball on an egg flan <br> T&uacute tiras una bola de boliche a un flan","{""Q0"":1}","trial","37572","survey-likert","19","157390","0.0-5.0-0.5","25","1","2022-11-29 21:24:52","2df368f4e41f066fd1c82c297b4a1108","189.152.206.94","Mozilla/5.0 (Windows NT 10.0; Win64; x64) AppleWebKit/537.36 (KHTML, like Gecko) Chrome/107.0.0.0 Safari/537.36","WebKit","Chrome","107.0.0.0","Windows","10.0","[0]","","7","1",""
"7504","You drop a bowling ball on an egg flan <br> T&uacute tiras una bola de boliche a un flan","{""Q0"":""tú dejas caer una bola de boliche en un flan de huevo""}","low_rate","37572","survey-text","20","164904","0.0-5.0-1.5-0.5","25","1","2022-11-29 21:24:52","2df368f4e41f066fd1c82c297b4a1108","189.152.206.94","Mozilla/5.0 (Windows NT 10.0; Win64; x64) AppleWebKit/537.36 (KHTML, like Gecko) Chrome/107.0.0.0 Safari/537.36","WebKit","Chrome","107.0.0.0","Windows","10.0","","","7","",""
"3860","You see how a puppy is playing with a ball <br> T&uacute ves como un cachorro est&aacute jugando con una pelota","{""Q0"":4}","trial","37572","survey-likert","21","168767","0.0-5.0-0.6","25","1","2022-11-29 21:24:52","2df368f4e41f066fd1c82c297b4a1108","189.152.206.94","Mozilla/5.0 (Windows NT 10.0; Win64; x64) AppleWebKit/537.36 (KHTML, like Gecko) Chrome/107.0.0.0 Safari/537.36","WebKit","Chrome","107.0.0.0","Windows","10.0","[0]","","34","4",""
"4833","You drop a toothbrush on the sponge <br> T&uacute tiras un cepillo de dientes en la esponja","{""Q0"":2}","trial","37572","survey-likert","22","173610","0.0-5.0-0.7","25","1","2022-11-29 21:24:52","2df368f4e41f066fd1c82c297b4a1108","189.152.206.94","Mozilla/5.0 (Windows NT 10.0; Win64; x64) AppleWebKit/537.36 (KHTML, like Gecko) Chrome/107.0.0.0 Safari/537.36","WebKit","Chrome","107.0.0.0","Windows","10.0","[0]","","25","2",""
"6794","You see how a postman is driving a car <br> T&uacute ves como un cartero est&aacute conduciendo un coche","{""Q0"":4}","trial","37572","survey-likert","23","180414","0.0-5.0-0.8","25","1","2022-11-29 21:24:52","2df368f4e41f066fd1c82c297b4a1108","189.152.206.94","Mozilla/5.0 (Windows NT 10.0; Win64; x64) AppleWebKit/537.36 (KHTML, like Gecko) Chrome/107.0.0.0 Safari/537.36","WebKit","Chrome","107.0.0.0","Windows","10.0","[0]","","32","4",""
"5442","You drop a bowling ball on a piece of sushi <br> T&uacute tiras una bola de boliche a un pedazo de sushi","{""Q0"":1}","trial","37572","survey-likert","24","185866","0.0-5.0-0.9","25","1","2022-11-29 21:24:52","2df368f4e41f066fd1c82c297b4a1108","189.152.206.94","Mozilla/5.0 (Windows NT 10.0; Win64; x64) AppleWebKit/537.36 (KHTML, like Gecko) Chrome/107.0.0.0 Safari/537.36","WebKit","Chrome","107.0.0.0","Windows","10.0","[0]","","21","1",""
"5635","You drop a bowling ball on a piece of sushi <br> T&uacute tiras una bola de boliche a un pedazo de sushi","{""Q0"":""tú dejas caer una bola de boliche en un sushi""}","low_rate","37572","survey-text","25","191512","0.0-5.0-1.9-0.9","25","1","2022-11-29 21:24:52","2df368f4e41f066fd1c82c297b4a1108","189.152.206.94","Mozilla/5.0 (Windows NT 10.0; Win64; x64) AppleWebKit/537.36 (KHTML, like Gecko) Chrome/107.0.0.0 Safari/537.36","WebKit","Chrome","107.0.0.0","Windows","10.0","","","21","",""
"6830","You see how a cat is drinking water from a bowl <br> T&uacute ves como un gato est&aacute bebiendo agua de un cuenco","{""Q0"":3}","trial","37572","survey-likert","26","198346","0.0-5.0-0.10","25","1","2022-11-29 21:24:52","2df368f4e41f066fd1c82c297b4a1108","189.152.206.94","Mozilla/5.0 (Windows NT 10.0; Win64; x64) AppleWebKit/537.36 (KHTML, like Gecko) Chrome/107.0.0.0 Safari/537.36","WebKit","Chrome","107.0.0.0","Windows","10.0","[0]","","28","3",""
"3266","You see how a boy is peeling a banana <br> T&uacute ves como un ni&ntildeo est&aacute pelando una banana","{""Q0"":4}","trial","37572","survey-likert","27","201622","0.0-5.0-0.11","25","1","2022-11-29 21:24:52","2df368f4e41f066fd1c82c297b4a1108","189.152.206.94","Mozilla/5.0 (Windows NT 10.0; Win64; x64) AppleWebKit/537.36 (KHTML, like Gecko) Chrome/107.0.0.0 Safari/537.36","WebKit","Chrome","107.0.0.0","Windows","10.0","[0]","","30","4",""
"2898","You drop a bowling ball on a hat <br> T&uacute tiras una bola de boliche a una gorra","{""Q0"":1}","trial","37572","survey-likert","28","204530","0.0-5.0-0.12","25","1","2022-11-29 21:24:52","2df368f4e41f066fd1c82c297b4a1108","189.152.206.94","Mozilla/5.0 (Windows NT 10.0; Win64; x64) AppleWebKit/537.36 (KHTML, like Gecko) Chrome/107.0.0.0 Safari/537.36","WebKit","Chrome","107.0.0.0","Windows","10.0","[0]","","10","1",""
"8626","You drop a bowling ball on a hat <br> T&uacute tiras una bola de boliche a una gorra","{""Q0"":""tú dejas caer una bola de boliche en una gorra""}","low_rate","37572","survey-text","29","213168","0.0-5.0-1.12-0.12","25","1","2022-11-29 21:24:52","2df368f4e41f066fd1c82c297b4a1108","189.152.206.94","Mozilla/5.0 (Windows NT 10.0; Win64; x64) AppleWebKit/537.36 (KHTML, like Gecko) Chrome/107.0.0.0 Safari/537.36","WebKit","Chrome","107.0.0.0","Windows","10.0","","","10","",""
"4626","You drop a bowling ball on a tile <br> T&uacute tiras una bola de boliche a una baldosa","{""Q0"":3}","trial","37572","survey-likert","30","217798","0.0-5.0-0.13","25","1","2022-11-29 21:24:52","2df368f4e41f066fd1c82c297b4a1108","189.152.206.94","Mozilla/5.0 (Windows NT 10.0; Win64; x64) AppleWebKit/537.36 (KHTML, like Gecko) Chrome/107.0.0.0 Safari/537.36","WebKit","Chrome","107.0.0.0","Windows","10.0","[0]","","22","3",""
"3584","You drop a bowling ball on a cracker <br> T&uacute tiras una bola de boliche a una galleta","{""Q0"":3}","trial","37572","survey-likert","31","221392","0.0-5.0-0.14","25","1","2022-11-29 21:24:52","2df368f4e41f066fd1c82c297b4a1108","189.152.206.94","Mozilla/5.0 (Windows NT 10.0; Win64; x64) AppleWebKit/537.36 (KHTML, like Gecko) Chrome/107.0.0.0 Safari/537.36","WebKit","Chrome","107.0.0.0","Windows","10.0","[0]","","4","3",""
"6117","You drop a pencil on the shoe <br> T&uacute tiras un l&aacutepiz al zapato","{""Q0"":1}","trial","37572","survey-likert","32","227520","0.0-5.0-0.15","25","1","2022-11-29 21:24:52","2df368f4e41f066fd1c82c297b4a1108","189.152.206.94","Mozilla/5.0 (Windows NT 10.0; Win64; x64) AppleWebKit/537.36 (KHTML, like Gecko) Chrome/107.0.0.0 Safari/537.36","WebKit","Chrome","107.0.0.0","Windows","10.0","[0]","","40","1",""
"12222","You drop a pencil on the shoe <br> T&uacute tiras un l&aacutepiz al zapato","{""Q0"":""tú dejas caer una bola de boliche en un lápiz""}","low_rate","37572","survey-text","33","239753","0.0-5.0-1.15-0.15","25","1","2022-11-29 21:24:52","2df368f4e41f066fd1c82c297b4a1108","189.152.206.94","Mozilla/5.0 (Windows NT 10.0; Win64; x64) AppleWebKit/537.36 (KHTML, like Gecko) Chrome/107.0.0.0 Safari/537.36","WebKit","Chrome","107.0.0.0","Windows","10.0","","","40","",""
"6718","You drop a fork on the plate <br> T&uacute tiras un tenedor al plato","{""Q0"":3}","trial","37572","survey-likert","34","246475","0.0-5.0-0.16","25","1","2022-11-29 21:24:52","2df368f4e41f066fd1c82c297b4a1108","189.152.206.94","Mozilla/5.0 (Windows NT 10.0; Win64; x64) AppleWebKit/537.36 (KHTML, like Gecko) Chrome/107.0.0.0 Safari/537.36","WebKit","Chrome","107.0.0.0","Windows","10.0","[0]","","26","3",""
"4231","You see how a dentist is drinking a can of cola <br> T&uacute ves como un dentista est&aacute bebiendo una lata de cola","{""Q0"":3}","trial","37572","survey-likert","35","250717","0.0-5.0-0.17","25","1","2022-11-29 21:24:52","2df368f4e41f066fd1c82c297b4a1108","189.152.206.94","Mozilla/5.0 (Windows NT 10.0; Win64; x64) AppleWebKit/537.36 (KHTML, like Gecko) Chrome/107.0.0.0 Safari/537.36","WebKit","Chrome","107.0.0.0","Windows","10.0","[0]","","47","3",""
"4387","You drop a watch on the laptop <br> T&uacute tiras un reloj al port&aacutetil","{""Q0"":2}","trial","37572","survey-likert","36","255115","0.0-5.0-0.18","25","1","2022-11-29 21:24:52","2df368f4e41f066fd1c82c297b4a1108","189.152.206.94","Mozilla/5.0 (Windows NT 10.0; Win64; x64) AppleWebKit/537.36 (KHTML, like Gecko) Chrome/107.0.0.0 Safari/537.36","WebKit","Chrome","107.0.0.0","Windows","10.0","[0]","","37","2",""
"2840","You see how a pilot is reading a book <br> T&uacute ves como un piloto est&aacute leyendo un libro","{""Q0"":4}","trial","37572","survey-likert","37","257967","0.0-5.0-0.19","25","1","2022-11-29 21:24:52","2df368f4e41f066fd1c82c297b4a1108","189.152.206.94","Mozilla/5.0 (Windows NT 10.0; Win64; x64) AppleWebKit/537.36 (KHTML, like Gecko) Chrome/107.0.0.0 Safari/537.36","WebKit","Chrome","107.0.0.0","Windows","10.0","[0]","","61","4",""
"6097","You see how an owl is sitting on the branch <br> T&uacute ves como un b&uacuteho est&aacute reposando en una rama","{""Q0"":3}","trial","37572","survey-likert","38","264075","0.0-5.0-0.20","25","1","2022-11-29 21:24:52","2df368f4e41f066fd1c82c297b4a1108","189.152.206.94","Mozilla/5.0 (Windows NT 10.0; Win64; x64) AppleWebKit/537.36 (KHTML, like Gecko) Chrome/107.0.0.0 Safari/537.36","WebKit","Chrome","107.0.0.0","Windows","10.0","[0]","","69","3",""
"6232","You see how a woman is taking money out of a wallet <br> T&uacute ves como una mujer est&aacute sacando dinero de su billetera","{""Q0"":3}","trial","37572","survey-likert","39","270318","0.0-5.0-0.21","25","1","2022-11-29 21:24:52","2df368f4e41f066fd1c82c297b4a1108","189.152.206.94","Mozilla/5.0 (Windows NT 10.0; Win64; x64) AppleWebKit/537.36 (KHTML, like Gecko) Chrome/107.0.0.0 Safari/537.36","WebKit","Chrome","107.0.0.0","Windows","10.0","[0]","","44","3",""
"6812","You drop a bowling ball on a piece of cake <br> T&uacute tiras una bola de boliche a un trozo de pastel","{""Q0"":1}","trial","37572","survey-likert","40","277141","0.0-5.0-0.22","25","1","2022-11-29 21:24:52","2df368f4e41f066fd1c82c297b4a1108","189.152.206.94","Mozilla/5.0 (Windows NT 10.0; Win64; x64) AppleWebKit/537.36 (KHTML, like Gecko) Chrome/107.0.0.0 Safari/537.36","WebKit","Chrome","107.0.0.0","Windows","10.0","[0]","","2","1",""
"7183","You drop a bowling ball on a piece of cake <br> T&uacute tiras una bola de boliche a un trozo de pastel","{""Q0"":""tú dejas caer una bola de boliche en un trozo de pastel""}","low_rate","37572","survey-text","41","284336","0.0-5.0-1.22-0.22","25","1","2022-11-29 21:24:52","2df368f4e41f066fd1c82c297b4a1108","189.152.206.94","Mozilla/5.0 (Windows NT 10.0; Win64; x64) AppleWebKit/537.36 (KHTML, like Gecko) Chrome/107.0.0.0 Safari/537.36","WebKit","Chrome","107.0.0.0","Windows","10.0","","","2","",""
"3792","You see how a hairdresser is taking scissors <br> T&uacute ves como una peluquera est&aacute agarrando las tijeras","{""Q0"":4}","trial","37572","survey-likert","42","288133","0.0-5.0-0.23","25","1","2022-11-29 21:24:52","2df368f4e41f066fd1c82c297b4a1108","189.152.206.94","Mozilla/5.0 (Windows NT 10.0; Win64; x64) AppleWebKit/537.36 (KHTML, like Gecko) Chrome/107.0.0.0 Safari/537.36","WebKit","Chrome","107.0.0.0","Windows","10.0","[0]","","60","4",""
"3878","You see how a butterfly is sitting on a flower <br> T&uacute ves como una mariposa est&aacute reposando en una flor","{""Q0"":4}","trial","37572","survey-likert","43","292024","0.0-5.0-0.24","25","1","2022-11-29 21:24:52","2df368f4e41f066fd1c82c297b4a1108","189.152.206.94","Mozilla/5.0 (Windows NT 10.0; Win64; x64) AppleWebKit/537.36 (KHTML, like Gecko) Chrome/107.0.0.0 Safari/537.36","WebKit","Chrome","107.0.0.0","Windows","10.0","[0]","","59","4",""
"4079","You drop a bowling ball on an iPhone <br> T&uacute tiras una bola de boliche a un iPhone","{""Q0"":1}","trial","37572","survey-likert","44","296114","0.0-5.0-0.25","25","1","2022-11-29 21:24:52","2df368f4e41f066fd1c82c297b4a1108","189.152.206.94","Mozilla/5.0 (Windows NT 10.0; Win64; x64) AppleWebKit/537.36 (KHTML, like Gecko) Chrome/107.0.0.0 Safari/537.36","WebKit","Chrome","107.0.0.0","Windows","10.0","[0]","","13","1",""
"4855","You drop a bowling ball on an iPhone <br> T&uacute tiras una bola de boliche a un iPhone","{""Q0"":""tú dejas caer una bola de boliche en un iphone""}","low_rate","37572","survey-text","45","300982","0.0-5.0-1.25-0.25","25","1","2022-11-29 21:24:52","2df368f4e41f066fd1c82c297b4a1108","189.152.206.94","Mozilla/5.0 (Windows NT 10.0; Win64; x64) AppleWebKit/537.36 (KHTML, like Gecko) Chrome/107.0.0.0 Safari/537.36","WebKit","Chrome","107.0.0.0","Windows","10.0","","","13","",""
"3129","You see how a panda is resting on a tree <br> T&uacute ves como un panda est&aacute descansando en un &aacuterbol","{""Q0"":4}","trial","37572","survey-likert","46","304116","0.0-5.0-0.26","25","1","2022-11-29 21:24:52","2df368f4e41f066fd1c82c297b4a1108","189.152.206.94","Mozilla/5.0 (Windows NT 10.0; Win64; x64) AppleWebKit/537.36 (KHTML, like Gecko) Chrome/107.0.0.0 Safari/537.36","WebKit","Chrome","107.0.0.0","Windows","10.0","[0]","","57","4",""
"3885","You see how an old man is hammering a nail <br> T&uacute ves como un hombre anciano est&aacute martillando un clavo","{""Q0"":4}","trial","37572","survey-likert","47","308014","0.0-5.0-0.27","25","1","2022-11-29 21:24:52","2df368f4e41f066fd1c82c297b4a1108","189.152.206.94","Mozilla/5.0 (Windows NT 10.0; Win64; x64) AppleWebKit/537.36 (KHTML, like Gecko) Chrome/107.0.0.0 Safari/537.36","WebKit","Chrome","107.0.0.0","Windows","10.0","[0]","","29","4",""
"3264","You see how a photographer is taking a photo of a lion <br> T&uacute ves como un fot&oacutegrafo est&aacute tomando una foto de un le&oacuten","{""Q0"":4}","trial","37572","survey-likert","48","311290","0.0-5.0-0.28","25","1","2022-11-29 21:24:52","2df368f4e41f066fd1c82c297b4a1108","189.152.206.94","Mozilla/5.0 (Windows NT 10.0; Win64; x64) AppleWebKit/537.36 (KHTML, like Gecko) Chrome/107.0.0.0 Safari/537.36","WebKit","Chrome","107.0.0.0","Windows","10.0","[0]","","72","4",""
"7723","You see how a student is writing on a board <br> T&uacute ves como un estudiante est&aacute escribiendo en la pizarra","{""Q0"":4}","trial","37572","survey-likert","49","319026","0.0-5.0-0.29","25","1","2022-11-29 21:24:52","2df368f4e41f066fd1c82c297b4a1108","189.152.206.94","Mozilla/5.0 (Windows NT 10.0; Win64; x64) AppleWebKit/537.36 (KHTML, like Gecko) Chrome/107.0.0.0 Safari/537.36","WebKit","Chrome","107.0.0.0","Windows","10.0","[0]","","50","4",""
"4425","You drop a bowling ball on a mirror <br> T&uacute tiras una bola de boliche a un espejo","{""Q0"":1}","trial","37572","survey-likert","50","323464","0.0-5.0-0.30","25","1","2022-11-29 21:24:52","2df368f4e41f066fd1c82c297b4a1108","189.152.206.94","Mozilla/5.0 (Windows NT 10.0; Win64; x64) AppleWebKit/537.36 (KHTML, like Gecko) Chrome/107.0.0.0 Safari/537.36","WebKit","Chrome","107.0.0.0","Windows","10.0","[0]","","15","1",""
"5229","You drop a bowling ball on a mirror <br> T&uacute tiras una bola de boliche a un espejo","{""Q0"":""tú dejas caer una bola de boliche en un espejo""}","low_rate","37572","survey-text","51","328706","0.0-5.0-1.30-0.30","25","1","2022-11-29 21:24:52","2df368f4e41f066fd1c82c297b4a1108","189.152.206.94","Mozilla/5.0 (Windows NT 10.0; Win64; x64) AppleWebKit/537.36 (KHTML, like Gecko) Chrome/107.0.0.0 Safari/537.36","WebKit","Chrome","107.0.0.0","Windows","10.0","","","15","",""
"3738","You see how a man is shaving his beard <br> T&uacute ves como un hombre se est&aacute afeitando la barba","{""Q0"":4}","trial","37572","survey-likert","52","332450","0.0-5.0-0.31","25","1","2022-11-29 21:24:52","2df368f4e41f066fd1c82c297b4a1108","189.152.206.94","Mozilla/5.0 (Windows NT 10.0; Win64; x64) AppleWebKit/537.36 (KHTML, like Gecko) Chrome/107.0.0.0 Safari/537.36","WebKit","Chrome","107.0.0.0","Windows","10.0","[0]","","43","4",""
"9219","You drop a bowling ball on a tomato <br> T&uacute tiras una bola de boliche a un tomate","{""Q0"":1}","trial","37572","survey-likert","53","341681","0.0-5.0-0.32","25","1","2022-11-29 21:24:52","2df368f4e41f066fd1c82c297b4a1108","189.152.206.94","Mozilla/5.0 (Windows NT 10.0; Win64; x64) AppleWebKit/537.36 (KHTML, like Gecko) Chrome/107.0.0.0 Safari/537.36","WebKit","Chrome","107.0.0.0","Windows","10.0","[0]","","23","1",""
"3280","You drop a bowling ball on a tomato <br> T&uacute tiras una bola de boliche a un tomate","{""Q0"":""tú dejas caer una bola de boliche en un tomate""}","low_rate","37572","survey-text","54","344974","0.0-5.0-1.32-0.32","25","1","2022-11-29 21:24:52","2df368f4e41f066fd1c82c297b4a1108","189.152.206.94","Mozilla/5.0 (Windows NT 10.0; Win64; x64) AppleWebKit/537.36 (KHTML, like Gecko) Chrome/107.0.0.0 Safari/537.36","WebKit","Chrome","107.0.0.0","Windows","10.0","","","23","",""
"4311","You see how a police officer is talking on the phone <br> T&uacute ves como un polic&iacutea est&aacute hablando por el tel&eacutefono","{""Q0"":4}","trial","37572","survey-likert","55","349290","0.0-5.0-0.33","25","1","2022-11-29 21:24:52","2df368f4e41f066fd1c82c297b4a1108","189.152.206.94","Mozilla/5.0 (Windows NT 10.0; Win64; x64) AppleWebKit/537.36 (KHTML, like Gecko) Chrome/107.0.0.0 Safari/537.36","WebKit","Chrome","107.0.0.0","Windows","10.0","[0]","","62","4",""
"7120","You drop a bowling ball on a porcelain figure <br> T&uacute tiras una bola de boliche a una figura de porcelana","{""Q0"":1}","trial","37572","survey-likert","56","356424","0.0-5.0-0.34","25","1","2022-11-29 21:24:52","2df368f4e41f066fd1c82c297b4a1108","189.152.206.94","Mozilla/5.0 (Windows NT 10.0; Win64; x64) AppleWebKit/537.36 (KHTML, like Gecko) Chrome/107.0.0.0 Safari/537.36","WebKit","Chrome","107.0.0.0","Windows","10.0","[0]","","1","1",""
"4707","You drop a bowling ball on a porcelain figure <br> T&uacute tiras una bola de boliche a una figura de porcelana","{""Q0"":""tú dejas caer una bola de boliche a una porcelana""}","low_rate","37572","survey-text","57","361145","0.0-5.0-1.34-0.34","25","1","2022-11-29 21:24:52","2df368f4e41f066fd1c82c297b4a1108","189.152.206.94","Mozilla/5.0 (Windows NT 10.0; Win64; x64) AppleWebKit/537.36 (KHTML, like Gecko) Chrome/107.0.0.0 Safari/537.36","WebKit","Chrome","107.0.0.0","Windows","10.0","","","1","",""
"4439","You drop a bowling ball on glasses <br> T&uacute tiras una bola de boliche a unas gafas","{""Q0"":2}","trial","37572","survey-likert","58","365590","0.0-5.0-0.35","25","1","2022-11-29 21:24:52","2df368f4e41f066fd1c82c297b4a1108","189.152.206.94","Mozilla/5.0 (Windows NT 10.0; Win64; x64) AppleWebKit/537.36 (KHTML, like Gecko) Chrome/107.0.0.0 Safari/537.36","WebKit","Chrome","107.0.0.0","Windows","10.0","[0]","","9","2",""
"4796","You drop a bowling ball on a strawberry <br> T&uacute tiras una bola de boliche a una fresa","{""Q0"":1}","trial","37572","survey-likert","59","370398","0.0-5.0-0.36","25","1","2022-11-29 21:24:52","2df368f4e41f066fd1c82c297b4a1108","189.152.206.94","Mozilla/5.0 (Windows NT 10.0; Win64; x64) AppleWebKit/537.36 (KHTML, like Gecko) Chrome/107.0.0.0 Safari/537.36","WebKit","Chrome","107.0.0.0","Windows","10.0","[0]","","20","1",""
"2862","You drop a bowling ball on a strawberry <br> T&uacute tiras una bola de boliche a una fresa","{""Q0"":""tú dejas caer una bola de boliche en una fresa""}","low_rate","37572","survey-text","60","373275","0.0-5.0-1.36-0.36","25","1","2022-11-29 21:24:52","2df368f4e41f066fd1c82c297b4a1108","189.152.206.94","Mozilla/5.0 (Windows NT 10.0; Win64; x64) AppleWebKit/537.36 (KHTML, like Gecko) Chrome/107.0.0.0 Safari/537.36","WebKit","Chrome","107.0.0.0","Windows","10.0","","","20","",""
"3983","You see how a president is writing in the notebook <br> T&uacute ves como un presidente est&aacute escribiendo en la libreta","{""Q0"":4}","trial","37572","survey-likert","61","377265","0.0-5.0-0.37","25","1","2022-11-29 21:24:52","2df368f4e41f066fd1c82c297b4a1108","189.152.206.94","Mozilla/5.0 (Windows NT 10.0; Win64; x64) AppleWebKit/537.36 (KHTML, like Gecko) Chrome/107.0.0.0 Safari/537.36","WebKit","Chrome","107.0.0.0","Windows","10.0","[0]","","63","4",""
"2714","You drop a bowling ball on a blackberry <br> T&uacute tiras una bola de boliche a una mora","{""Q0"":2}","trial","37572","survey-likert","62","379992","0.0-5.0-0.38","25","1","2022-11-29 21:24:52","2df368f4e41f066fd1c82c297b4a1108","189.152.206.94","Mozilla/5.0 (Windows NT 10.0; Win64; x64) AppleWebKit/537.36 (KHTML, like Gecko) Chrome/107.0.0.0 Safari/537.36","WebKit","Chrome","107.0.0.0","Windows","10.0","[0]","","8","2",""
"3959","You drop a bowling ball on an egg <br> T&uacute tiras una bola de boliche a un huevo","{""Q0"":3}","trial","37572","survey-likert","63","383964","0.0-5.0-0.39","25","1","2022-11-29 21:24:52","2df368f4e41f066fd1c82c297b4a1108","189.152.206.94","Mozilla/5.0 (Windows NT 10.0; Win64; x64) AppleWebKit/537.36 (KHTML, like Gecko) Chrome/107.0.0.0 Safari/537.36","WebKit","Chrome","107.0.0.0","Windows","10.0","[0]","","6","3",""
"3006","You drop a bowling ball on a wine glass <br> T&uacute tiras una bola de boliche a una copa de vino","{""Q0"":1}","trial","37572","survey-likert","64","386984","0.0-5.0-0.40","25","1","2022-11-29 21:24:52","2df368f4e41f066fd1c82c297b4a1108","189.152.206.94","Mozilla/5.0 (Windows NT 10.0; Win64; x64) AppleWebKit/537.36 (KHTML, like Gecko) Chrome/107.0.0.0 Safari/537.36","WebKit","Chrome","107.0.0.0","Windows","10.0","[0]","","5","1",""
"3707","You drop a bowling ball on a wine glass <br> T&uacute tiras una bola de boliche a una copa de vino","{""Q0"":""tú dejas caer una bola de boliche en una copa de vino""}","low_rate","37572","survey-text","65","390704","0.0-5.0-1.40-0.40","25","1","2022-11-29 21:24:52","2df368f4e41f066fd1c82c297b4a1108","189.152.206.94","Mozilla/5.0 (Windows NT 10.0; Win64; x64) AppleWebKit/537.36 (KHTML, like Gecko) Chrome/107.0.0.0 Safari/537.36","WebKit","Chrome","107.0.0.0","Windows","10.0","","","5","",""
"4375","You see how a teenage girl is playing the piano <br> T&uacute ves como una ni&ntildea adolescente est&aacute tocando el piano","{""Q0"":4}","trial","37572","survey-likert","66","395086","0.0-5.0-0.41","25","1","2022-11-29 21:24:52","2df368f4e41f066fd1c82c297b4a1108","189.152.206.94","Mozilla/5.0 (Windows NT 10.0; Win64; x64) AppleWebKit/537.36 (KHTML, like Gecko) Chrome/107.0.0.0 Safari/537.36","WebKit","Chrome","107.0.0.0","Windows","10.0","[0]","","54","4",""
"7244","You drop a bowling ball on a chocolate muffin <br> T&uacute tiras una bola de boliche a una magdalena de chocolate","{""Q0"":1}","trial","37572","survey-likert","67","402344","0.0-5.0-0.42","25","1","2022-11-29 21:24:52","2df368f4e41f066fd1c82c297b4a1108","189.152.206.94","Mozilla/5.0 (Windows NT 10.0; Win64; x64) AppleWebKit/537.36 (KHTML, like Gecko) Chrome/107.0.0.0 Safari/537.36","WebKit","Chrome","107.0.0.0","Windows","10.0","[0]","","16","1",""
"4969","You drop a bowling ball on a chocolate muffin <br> T&uacute tiras una bola de boliche a una magdalena de chocolate","{""Q0"":""tú dejas caer una bola de boliche en una magdalena de chocolate""}","low_rate","37572","survey-text","68","407328","0.0-5.0-1.42-0.42","25","1","2022-11-29 21:24:52","2df368f4e41f066fd1c82c297b4a1108","189.152.206.94","Mozilla/5.0 (Windows NT 10.0; Win64; x64) AppleWebKit/537.36 (KHTML, like Gecko) Chrome/107.0.0.0 Safari/537.36","WebKit","Chrome","107.0.0.0","Windows","10.0","","","16","",""
"3950","You see how a woman is paying with a debit card <br> T&uacute ves como una mujer est&aacute pagando con una tarjeta de d&eacutebito","{""Q0"":4}","trial","37572","survey-likert","69","411286","0.0-5.0-0.43","25","1","2022-11-29 21:24:52","2df368f4e41f066fd1c82c297b4a1108","189.152.206.94","Mozilla/5.0 (Windows NT 10.0; Win64; x64) AppleWebKit/537.36 (KHTML, like Gecko) Chrome/107.0.0.0 Safari/537.36","WebKit","Chrome","107.0.0.0","Windows","10.0","[0]","","64","4",""
"2144","You see how a musician is playing a guitar <br> T&uacute ves como un m&uacutesico est&aacute tocando la guitarra","{""Q0"":4}","trial","37572","survey-likert","70","413443","0.0-5.0-0.44","25","1","2022-11-29 21:24:52","2df368f4e41f066fd1c82c297b4a1108","189.152.206.94","Mozilla/5.0 (Windows NT 10.0; Win64; x64) AppleWebKit/537.36 (KHTML, like Gecko) Chrome/107.0.0.0 Safari/537.36","WebKit","Chrome","107.0.0.0","Windows","10.0","[0]","","27","4",""
"4602","You drop a bowling ball on a paper cup <br> T&uacute tiras una bola de boliche a un vaso de papel","{""Q0"":1}","trial","37572","survey-likert","71","418059","0.0-5.0-0.45","25","1","2022-11-29 21:24:52","2df368f4e41f066fd1c82c297b4a1108","189.152.206.94","Mozilla/5.0 (Windows NT 10.0; Win64; x64) AppleWebKit/537.36 (KHTML, like Gecko) Chrome/107.0.0.0 Safari/537.36","WebKit","Chrome","107.0.0.0","Windows","10.0","[0]","","24","1",""
"4557","You drop a bowling ball on a paper cup <br> T&uacute tiras una bola de boliche a un vaso de papel","{""Q0"":""tú dejas caer una bola de boliche en un vaso de papel""}","low_rate","37572","survey-text","72","422631","0.0-5.0-1.45-0.45","25","1","2022-11-29 21:24:52","2df368f4e41f066fd1c82c297b4a1108","189.152.206.94","Mozilla/5.0 (Windows NT 10.0; Win64; x64) AppleWebKit/537.36 (KHTML, like Gecko) Chrome/107.0.0.0 Safari/537.36","WebKit","Chrome","107.0.0.0","Windows","10.0","","","24","",""
"5216","You see how an elephant is eating a watermelon <br> T&uacute ves como un elefante est&aacute comiendo una sand&iacutea","{""Q0"":4}","trial","37572","survey-likert","73","427855","0.0-5.0-0.46","25","1","2022-11-29 21:24:52","2df368f4e41f066fd1c82c297b4a1108","189.152.206.94","Mozilla/5.0 (Windows NT 10.0; Win64; x64) AppleWebKit/537.36 (KHTML, like Gecko) Chrome/107.0.0.0 Safari/537.36","WebKit","Chrome","107.0.0.0","Windows","10.0","[0]","","31","4",""
"1662","You drop a bowling ball on a donut <br> T&uacute tiras una bola de boliche a una rosquilla","{""Q0"":2}","trial","37572","survey-likert","74","429532","0.0-5.0-0.47","25","1","2022-11-29 21:24:52","2df368f4e41f066fd1c82c297b4a1108","189.152.206.94","Mozilla/5.0 (Windows NT 10.0; Win64; x64) AppleWebKit/537.36 (KHTML, like Gecko) Chrome/107.0.0.0 Safari/537.36","WebKit","Chrome","107.0.0.0","Windows","10.0","[0]","","17","2",""
"4246","You see how a parrot is eating an apple <br> T&uacute ves como un loro est&aacute comiendo una manzana","{""Q0"":4}","trial","37572","survey-likert","75","433791","0.0-5.0-0.48","25","1","2022-11-29 21:24:52","2df368f4e41f066fd1c82c297b4a1108","189.152.206.94","Mozilla/5.0 (Windows NT 10.0; Win64; x64) AppleWebKit/537.36 (KHTML, like Gecko) Chrome/107.0.0.0 Safari/537.36","WebKit","Chrome","107.0.0.0","Windows","10.0","[0]","","58","4",""
"5781","You drop a bowling ball on a light bulb <br> T&uacute tiras una bola de boliche a una bombilla","{""Q0"":3}","trial","37572","survey-likert","76","439588","0.0-5.0-0.49","25","1","2022-11-29 21:24:52","2df368f4e41f066fd1c82c297b4a1108","189.152.206.94","Mozilla/5.0 (Windows NT 10.0; Win64; x64) AppleWebKit/537.36 (KHTML, like Gecko) Chrome/107.0.0.0 Safari/537.36","WebKit","Chrome","107.0.0.0","Windows","10.0","[0]","","14","3",""
"4740","You drop a thermometer on the box <br> T&uacute tiras un term&oacutemetro a la caja","{""Q0"":4}","trial","37572","survey-likert","77","444342","0.0-5.0-0.50","25","1","2022-11-29 21:24:52","2df368f4e41f066fd1c82c297b4a1108","189.152.206.94","Mozilla/5.0 (Windows NT 10.0; Win64; x64) AppleWebKit/537.36 (KHTML, like Gecko) Chrome/107.0.0.0 Safari/537.36","WebKit","Chrome","107.0.0.0","Windows","10.0","[0]","","70","4",""
"7252","You see how a man is boiling potatoes <br> T&uacute ves a un hombre est&aacute hirviendo papas","{""Q0"":1}","trial","37572","survey-likert","78","451609","0.0-5.0-0.51","25","1","2022-11-29 21:24:52","2df368f4e41f066fd1c82c297b4a1108","189.152.206.94","Mozilla/5.0 (Windows NT 10.0; Win64; x64) AppleWebKit/537.36 (KHTML, like Gecko) Chrome/107.0.0.0 Safari/537.36","WebKit","Chrome","107.0.0.0","Windows","10.0","[0]","","46","1",""
"6367","You see how a man is boiling potatoes <br> T&uacute ves a un hombre est&aacute hirviendo papas","{""Q0"":""tú ves como un hombre está hirviendo papas""}","low_rate","37572","survey-text","79","457992","0.0-5.0-1.51-0.51","25","1","2022-11-29 21:24:52","2df368f4e41f066fd1c82c297b4a1108","189.152.206.94","Mozilla/5.0 (Windows NT 10.0; Win64; x64) AppleWebKit/537.36 (KHTML, like Gecko) Chrome/107.0.0.0 Safari/537.36","WebKit","Chrome","107.0.0.0","Windows","10.0","","","46","",""
"3205","You see how a nurse is taking a syringe <br> T&uacute ves como una enfermera est&aacute agarrando una jeringuilla","{""Q0"":4}","trial","37572","survey-likert","80","461205","0.0-5.0-0.52","25","1","2022-11-29 21:24:52","2df368f4e41f066fd1c82c297b4a1108","189.152.206.94","Mozilla/5.0 (Windows NT 10.0; Win64; x64) AppleWebKit/537.36 (KHTML, like Gecko) Chrome/107.0.0.0 Safari/537.36","WebKit","Chrome","107.0.0.0","Windows","10.0","[0]","","48","4",""
"4209","You see how a donkey is drinking water <br> T&uacute ves como un burro est&aacute bebiendo agua","{""Q0"":4}","trial","37572","survey-likert","81","465429","0.0-5.0-0.53","25","1","2022-11-29 21:24:52","2df368f4e41f066fd1c82c297b4a1108","189.152.206.94","Mozilla/5.0 (Windows NT 10.0; Win64; x64) AppleWebKit/537.36 (KHTML, like Gecko) Chrome/107.0.0.0 Safari/537.36","WebKit","Chrome","107.0.0.0","Windows","10.0","[0]","","45","4",""
"3396","You see how a cook is taking a knife <br> T&uacute ves como un cocinero est&aacute agarrando un cuchillo","{""Q0"":4}","trial","37572","survey-likert","82","468840","0.0-5.0-0.54","25","1","2022-11-29 21:24:52","2df368f4e41f066fd1c82c297b4a1108","189.152.206.94","Mozilla/5.0 (Windows NT 10.0; Win64; x64) AppleWebKit/537.36 (KHTML, like Gecko) Chrome/107.0.0.0 Safari/537.36","WebKit","Chrome","107.0.0.0","Windows","10.0","[0]","","71","4",""
"3237","You see how a doctor is taking a stethoscope <br> T&uacute ves como un doctor est&aacute agarrando un estetoscopio","{""Q0"":4}","trial","37572","survey-likert","83","472092","0.0-5.0-0.55","25","1","2022-11-29 21:24:52","2df368f4e41f066fd1c82c297b4a1108","189.152.206.94","Mozilla/5.0 (Windows NT 10.0; Win64; x64) AppleWebKit/537.36 (KHTML, like Gecko) Chrome/107.0.0.0 Safari/537.36","WebKit","Chrome","107.0.0.0","Windows","10.0","[0]","","49","4",""
"4875","You drop a bowling ball on a chocolate ice-cream <br> T&uacute tiras una bola de boliche a un helado de chocolate","{""Q0"":3}","trial","37572","survey-likert","84","476982","0.0-5.0-0.56","25","1","2022-11-29 21:24:52","2df368f4e41f066fd1c82c297b4a1108","189.152.206.94","Mozilla/5.0 (Windows NT 10.0; Win64; x64) AppleWebKit/537.36 (KHTML, like Gecko) Chrome/107.0.0.0 Safari/537.36","WebKit","Chrome","107.0.0.0","Windows","10.0","[0]","","11","3",""
"3181","You drop a ring on the newspaper <br> T&uacute tiras un anillo al peri&oacutedico","{""Q0"":4}","trial","37572","survey-likert","85","480178","0.0-5.0-0.57","25","1","2022-11-29 21:24:52","2df368f4e41f066fd1c82c297b4a1108","189.152.206.94","Mozilla/5.0 (Windows NT 10.0; Win64; x64) AppleWebKit/537.36 (KHTML, like Gecko) Chrome/107.0.0.0 Safari/537.36","WebKit","Chrome","107.0.0.0","Windows","10.0","[0]","","41","4",""
"3675","You drop a cabbage on the table <br> T&uacute tiras una col a la mesa","{""Q0"":4}","trial","37572","survey-likert","86","483868","0.0-5.0-0.58","25","1","2022-11-29 21:24:52","2df368f4e41f066fd1c82c297b4a1108","189.152.206.94","Mozilla/5.0 (Windows NT 10.0; Win64; x64) AppleWebKit/537.36 (KHTML, like Gecko) Chrome/107.0.0.0 Safari/537.36","WebKit","Chrome","107.0.0.0","Windows","10.0","[0]","","35","4",""
"4129","You see how a giraffe is playing with a zebra <br> T&uacute ves como una jirafa est&aacute jugando con una cebra","{""Q0"":4}","trial","37572","survey-likert","87","488013","0.0-5.0-0.59","25","1","2022-11-29 21:24:52","2df368f4e41f066fd1c82c297b4a1108","189.152.206.94","Mozilla/5.0 (Windows NT 10.0; Win64; x64) AppleWebKit/537.36 (KHTML, like Gecko) Chrome/107.0.0.0 Safari/537.36","WebKit","Chrome","107.0.0.0","Windows","10.0","[0]","","65","4",""
"5960","You drop a bowling ball on a rice cake <br> T&uacute tiras una bola de boliche a una tortita de arroz","{""Q0"":3}","trial","37572","survey-likert","88","493988","0.0-5.0-0.60","25","1","2022-11-29 21:24:52","2df368f4e41f066fd1c82c297b4a1108","189.152.206.94","Mozilla/5.0 (Windows NT 10.0; Win64; x64) AppleWebKit/537.36 (KHTML, like Gecko) Chrome/107.0.0.0 Safari/537.36","WebKit","Chrome","107.0.0.0","Windows","10.0","[0]","","18","3",""
"3571","You see how an astronaut is putting on a space suit <br> T&uacute ves como un astronauta se est&aacute poniendo su traje espacial","{""Q0"":4}","trial","37572","survey-likert","89","497575","0.0-5.0-0.61","25","1","2022-11-29 21:24:52","2df368f4e41f066fd1c82c297b4a1108","189.152.206.94","Mozilla/5.0 (Windows NT 10.0; Win64; x64) AppleWebKit/537.36 (KHTML, like Gecko) Chrome/107.0.0.0 Safari/537.36","WebKit","Chrome","107.0.0.0","Windows","10.0","[0]","","33","4",""
"7906","You see how a zebra is playing with a horse <br> T&uacute ves como una cebra est&aacute jugando con un caballo","{""Q0"":4}","trial","37572","survey-likert","90","505496","0.0-5.0-0.62","25","1","2022-11-29 21:24:52","2df368f4e41f066fd1c82c297b4a1108","189.152.206.94","Mozilla/5.0 (Windows NT 10.0; Win64; x64) AppleWebKit/537.36 (KHTML, like Gecko) Chrome/107.0.0.0 Safari/537.36","WebKit","Chrome","107.0.0.0","Windows","10.0","[0]","","66","4",""
"5146","You drop a keyboard on the bed <br> T&uacute tiras un teclado a la cama","{""Q0"":3}","trial","37572","survey-likert","91","510659","0.0-5.0-0.63","25","1","2022-11-29 21:24:52","2df368f4e41f066fd1c82c297b4a1108","189.152.206.94","Mozilla/5.0 (Windows NT 10.0; Win64; x64) AppleWebKit/537.36 (KHTML, like Gecko) Chrome/107.0.0.0 Safari/537.36","WebKit","Chrome","107.0.0.0","Windows","10.0","[0]","","36","3",""
"4664","You drop a needle on the mouse pad <br> T&uacute tiras una aguja a la alfombrilla para el rat&oacuten","{""Q0"":2}","trial","37572","survey-likert","92","515338","0.0-5.0-0.64","25","1","2022-11-29 21:24:52","2df368f4e41f066fd1c82c297b4a1108","189.152.206.94","Mozilla/5.0 (Windows NT 10.0; Win64; x64) AppleWebKit/537.36 (KHTML, like Gecko) Chrome/107.0.0.0 Safari/537.36","WebKit","Chrome","107.0.0.0","Windows","10.0","[0]","","42","2",""
"6385","You drop a remote on the rug <br> T&uacute tiras un control remoto a la alfombra","{""Q0"":3}","trial","37572","survey-likert","93","521739","0.0-5.0-0.65","25","1","2022-11-29 21:24:52","2df368f4e41f066fd1c82c297b4a1108","189.152.206.94","Mozilla/5.0 (Windows NT 10.0; Win64; x64) AppleWebKit/537.36 (KHTML, like Gecko) Chrome/107.0.0.0 Safari/537.36","WebKit","Chrome","107.0.0.0","Windows","10.0","[0]","","39","3",""
"3750","You drop a towel on the TV <br> T&uacute tiras una toalla a la televisi&oacuten","{""Q0"":3}","trial","37572","survey-likert","94","525504","0.0-5.0-0.66","25","1","2022-11-29 21:24:52","2df368f4e41f066fd1c82c297b4a1108","189.152.206.94","Mozilla/5.0 (Windows NT 10.0; Win64; x64) AppleWebKit/537.36 (KHTML, like Gecko) Chrome/107.0.0.0 Safari/537.36","WebKit","Chrome","107.0.0.0","Windows","10.0","[0]","","53","3",""
"10917","You drop a bowling ball on an empty can of beer <br> T&uacute tiras una bola de boliche a una lata de cerveza vac&iacutea","{""Q0"":3}","trial","37572","survey-likert","95","536437","0.0-5.0-0.67","25","1","2022-11-29 21:24:52","2df368f4e41f066fd1c82c297b4a1108","189.152.206.94","Mozilla/5.0 (Windows NT 10.0; Win64; x64) AppleWebKit/537.36 (KHTML, like Gecko) Chrome/107.0.0.0 Safari/537.36","WebKit","Chrome","107.0.0.0","Windows","10.0","[0]","","3","3",""
"6293","You see how an actress is taking a microphone <br> T&uacute ves como una actriz est&aacute agarrando el micr&oacutefono","{""Q0"":4}","trial","37572","survey-likert","96","542746","0.0-5.0-0.68","25","1","2022-11-29 21:24:52","2df368f4e41f066fd1c82c297b4a1108","189.152.206.94","Mozilla/5.0 (Windows NT 10.0; Win64; x64) AppleWebKit/537.36 (KHTML, like Gecko) Chrome/107.0.0.0 Safari/537.36","WebKit","Chrome","107.0.0.0","Windows","10.0","[0]","","51","4",""
"3653","You see how a mouse is eating cheese <br> T&uacute ves como el rat&oacuten est&aacute comiendo queso","{""Q0"":4}","trial","37572","survey-likert","97","546415","0.0-5.0-0.69","25","1","2022-11-29 21:24:52","2df368f4e41f066fd1c82c297b4a1108","189.152.206.94","Mozilla/5.0 (Windows NT 10.0; Win64; x64) AppleWebKit/537.36 (KHTML, like Gecko) Chrome/107.0.0.0 Safari/537.36","WebKit","Chrome","107.0.0.0","Windows","10.0","[0]","","56","4",""
"3626","You see how a man is playing with a cat <br> T&uacute ves como un hombre est&aacute jugando con un gato","{""Q0"":4}","trial","37572","survey-likert","98","550057","0.0-5.0-0.70","25","1","2022-11-29 21:24:52","2df368f4e41f066fd1c82c297b4a1108","189.152.206.94","Mozilla/5.0 (Windows NT 10.0; Win64; x64) AppleWebKit/537.36 (KHTML, like Gecko) Chrome/107.0.0.0 Safari/537.36","WebKit","Chrome","107.0.0.0","Windows","10.0","[0]","","67","4",""
"4155","You drop a bowling ball on a ceramic plate <br> T&uacute tiras una bola de boliche a un plato de cer&aacutemica","{""Q0"":4}","trial","37572","survey-likert","99","554229","0.0-5.0-0.71","25","1","2022-11-29 21:24:52","2df368f4e41f066fd1c82c297b4a1108","189.152.206.94","Mozilla/5.0 (Windows NT 10.0; Win64; x64) AppleWebKit/537.36 (KHTML, like Gecko) Chrome/107.0.0.0 Safari/537.36","WebKit","Chrome","107.0.0.0","Windows","10.0","[0]","","19","4",""
"6926","
    <p style=""font-size:20px;""> You have completed the experiment portion! </p>
    <p style=""font-size:20px;""> Before you are done, we would like you to answer some basic demographic questions. </p>
    <p style=""font-size:20px;""> Note that your answers to these questions will not affect your compensation/credit. </p>
    <p style=""font-size:20px;""> Click the button below to continue.</p>
    ","0","demo","37572","html-button-response","100","561172","0.0-6.0","25","1","2022-11-29 21:24:52","2df368f4e41f066fd1c82c297b4a1108","189.152.206.94","Mozilla/5.0 (Windows NT 10.0; Win64; x64) AppleWebKit/537.36 (KHTML, like Gecko) Chrome/107.0.0.0 Safari/537.36","WebKit","Chrome","107.0.0.0","Windows","10.0","","","","",""
"12486","","{""Age"":""25"",""Gender"":""male"",""Education"":""17""}","demo","37572","survey-text","101","573672","0.0-7.0-0.0","25","1","2022-11-29 21:24:52","2df368f4e41f066fd1c82c297b4a1108","189.152.206.94","Mozilla/5.0 (Windows NT 10.0; Win64; x64) AppleWebKit/537.36 (KHTML, like Gecko) Chrome/107.0.0.0 Safari/537.36","WebKit","Chrome","107.0.0.0","Windows","10.0","","","","",""
"7977","","{""Race"":[""Other""]}","demo","37572","survey-multi-select","102","581667","0.0-7.0-1.0","25","1","2022-11-29 21:24:52","2df368f4e41f066fd1c82c297b4a1108","189.152.206.94","Mozilla/5.0 (Windows NT 10.0; Win64; x64) AppleWebKit/537.36 (KHTML, like Gecko) Chrome/107.0.0.0 Safari/537.36","WebKit","Chrome","107.0.0.0","Windows","10.0","[0]","","","",""
"6482","","{""Latino"":""Yes"",""Alert"":""Afternoon""}","demo","37572","survey-multi-choice","103","588167","0.0-7.0-2.0","25","1","2022-11-29 21:24:52","2df368f4e41f066fd1c82c297b4a1108","189.152.206.94","Mozilla/5.0 (Windows NT 10.0; Win64; x64) AppleWebKit/537.36 (KHTML, like Gecko) Chrome/107.0.0.0 Safari/537.36","WebKit","Chrome","107.0.0.0","Windows","10.0","[0,1]","","","",""
"7045","","{""Q0"":""no""}","demo","37572","survey-text","104","595229","0.0-7.0-3.0","25","1","2022-11-29 21:24:52","2df368f4e41f066fd1c82c297b4a1108","189.152.206.94","Mozilla/5.0 (Windows NT 10.0; Win64; x64) AppleWebKit/537.36 (KHTML, like Gecko) Chrome/107.0.0.0 Safari/537.36","WebKit","Chrome","107.0.0.0","Windows","10.0","","","","",""
"12944","<p>Thank you for participating! </p><strong>Your completion code is: CXEJB7NH. Please copy-paste this code and submit it on Prolific.</strong><p>Click <a href=""https://drive.google.com/file/d/1c70cdHFlc0AaR6RujLWLJwWkv1RbHQJY/view?usp=sharing"" target=""_blank"" rel=""noopener noreferrer"">here</a> to access the debriefing form and know more about our research. <p> Please click the button below to finish the experiment and save your data.</p> <p> IMPORTANT: Please <strong>do not leave this page </strong> without clicking the button below.</p> <p> You may close the tab/window after you click the button below.","0","","","html-button-response","105","608184","0.0-8.0","25","1","2022-11-29 21:24:52","2df368f4e41f066fd1c82c297b4a1108","189.152.206.94","Mozilla/5.0 (Windows NT 10.0; Win64; x64) AppleWebKit/537.36 (KHTML, like Gecko) Chrome/107.0.0.0 Safari/537.36","WebKit","Chrome","107.0.0.0","Windows","10.0","","","","",""
