"rt","stimulus","response","typeoftrial","subject","trial_type","trial_index","time_elapsed","internal_node_id","run_id","condition","recorded_at","source_code_version","ip","user_agent","device","browser","browser_version","platform","platform_version","question_order","practice_rating","sentence_num","rating","Experiment"
"71742","
        <p style=""font-size:20px;""> Welcome! Thank you for your interest in our study. </p>
        <p style=""font-size:20px;""> This study is being conducted by researchers at Bowdoin College.</p>
        <p style=""font-size:20px;""> In this experiment, you will be asked to rate the accuracy of English and Spanish translations.</p>
        <p style=""font-size:20px;""> The entire experiment should not last more than 20 minutes. You will be paid $3 USD for your participation. </p>
        <p style=""font-size:20px;""> Please click <a href = ""https://drive.google.com/file/d/1L92a02eEKCpaAEipmqDcBCDR7rsarqFE/view?usp=sharing"" target = ""_blank"">here</a> to read the full consent form. </p>
        <p style=""font-size:20px;""> If you agree to participate, please click the button below to continue to experiment instructions.</p>
        ","0","consent","67888","html-button-response","0","71746","0.0-0.0","10","1","2022-11-29 21:24:40","2df368f4e41f066fd1c82c297b4a1108","181.162.255.211","Mozilla/5.0 (Windows NT 10.0; Win64; x64) AppleWebKit/537.36 (KHTML, like Gecko) Chrome/107.0.0.0 Safari/537.36","WebKit","Chrome","107.0.0.0","Windows","10.0","","","","",""
"13403","","{""ID"":""5de94261c4afac000b9bb599""}","ID","67888","survey-text","1","85153","0.0-1.0","10","1","2022-11-29 21:24:40","2df368f4e41f066fd1c82c297b4a1108","181.162.255.211","Mozilla/5.0 (Windows NT 10.0; Win64; x64) AppleWebKit/537.36 (KHTML, like Gecko) Chrome/107.0.0.0 Safari/537.36","WebKit","Chrome","107.0.0.0","Windows","10.0","","","","",""
"72983","
        <p style=""font-size:20px;""> You are about to begin the practice test. </p>
        <p style=""font-size:20px;""> On each trial, you will see a sentence in English and its corresponding Spanish translation. </p>
        <p style=""font-size:20px;""> You will rate the accuracy of the translation on a scale from ""Not at all accurate"" to ""Very accurate."" </p>
        <p style=""font-size:20px;""> If you rate the translation as ""Somewhat innaccurate"" or ""Not at all accurate,"" you will be asked to provide your own translation or a reason why the translation is inaccurate. </p>
        <p style=""font-size:20px;""> Click the button below to continue to the practice session.</p>","0","instructions","67888","html-button-response","2","158137","0.0-2.0","10","1","2022-11-29 21:24:40","2df368f4e41f066fd1c82c297b4a1108","181.162.255.211","Mozilla/5.0 (Windows NT 10.0; Win64; x64) AppleWebKit/537.36 (KHTML, like Gecko) Chrome/107.0.0.0 Safari/537.36","WebKit","Chrome","107.0.0.0","Windows","10.0","","","","",""
"8702","You drop a bowling ball on a mircrowave <br> T&uacute tiras una bola de boliche a un horno","{""Q0"":0}","practice","67888","survey-likert","3","166841","0.0-3.0-0.0","10","1","2022-11-29 21:24:40","2df368f4e41f066fd1c82c297b4a1108","181.162.255.211","Mozilla/5.0 (Windows NT 10.0; Win64; x64) AppleWebKit/537.36 (KHTML, like Gecko) Chrome/107.0.0.0 Safari/537.36","WebKit","Chrome","107.0.0.0","Windows","10.0","[0]","0","","",""
"16363","You drop a bowling ball on a mircrowave <br> T&uacute tiras una bola de boliche a un horno","{""Q0"":""Tiras una bola de boliche a un microondas""}","practice_low_rate","67888","survey-text","4","183209","0.0-3.0-1.0-0.0","10","1","2022-11-29 21:24:40","2df368f4e41f066fd1c82c297b4a1108","181.162.255.211","Mozilla/5.0 (Windows NT 10.0; Win64; x64) AppleWebKit/537.36 (KHTML, like Gecko) Chrome/107.0.0.0 Safari/537.36","WebKit","Chrome","107.0.0.0","Windows","10.0","","","6","",""
"7422","You see how a duck is playing with a pumpkin <br> T&uacute ves como un pato est&aacute jugando con una calabaza","{""Q0"":4}","practice","67888","survey-likert","5","190633","0.0-3.0-0.1","10","1","2022-11-29 21:24:40","2df368f4e41f066fd1c82c297b4a1108","181.162.255.211","Mozilla/5.0 (Windows NT 10.0; Win64; x64) AppleWebKit/537.36 (KHTML, like Gecko) Chrome/107.0.0.0 Safari/537.36","WebKit","Chrome","107.0.0.0","Windows","10.0","[0]","4","","",""
"10213","You see how a tiger is playing with a goose <br> T&uacute ves como un le&oacuten come una pizza","{""Q0"":1}","practice","67888","survey-likert","6","200849","0.0-3.0-0.2","10","1","2022-11-29 21:24:40","2df368f4e41f066fd1c82c297b4a1108","181.162.255.211","Mozilla/5.0 (Windows NT 10.0; Win64; x64) AppleWebKit/537.36 (KHTML, like Gecko) Chrome/107.0.0.0 Safari/537.36","WebKit","Chrome","107.0.0.0","Windows","10.0","[0]","1","","",""
"13044","You see how a tiger is playing with a goose <br> T&uacute ves como un le&oacuten come una pizza","{""Q0"":""Tú ves como un tigre juega con una ganzo.""}","practice_low_rate","67888","survey-text","7","213897","0.0-3.0-1.2-0.2","10","1","2022-11-29 21:24:40","2df368f4e41f066fd1c82c297b4a1108","181.162.255.211","Mozilla/5.0 (Windows NT 10.0; Win64; x64) AppleWebKit/537.36 (KHTML, like Gecko) Chrome/107.0.0.0 Safari/537.36","WebKit","Chrome","107.0.0.0","Windows","10.0","","","5","",""
"3952","You see how an artist is running <br> T&uacute ves como un artista est&aacute corriendo","{""Q0"":4}","practice","67888","survey-likert","8","217850","0.0-3.0-0.3","10","1","2022-11-29 21:24:40","2df368f4e41f066fd1c82c297b4a1108","181.162.255.211","Mozilla/5.0 (Windows NT 10.0; Win64; x64) AppleWebKit/537.36 (KHTML, like Gecko) Chrome/107.0.0.0 Safari/537.36","WebKit","Chrome","107.0.0.0","Windows","10.0","[0]","4","","",""
"4149","You drop a rock on a phone <br> T&uacute tiras una piedra a un tel&eacutefono","{""Q0"":4}","practice","67888","survey-likert","9","222001","0.0-3.0-0.4","10","1","2022-11-29 21:24:40","2df368f4e41f066fd1c82c297b4a1108","181.162.255.211","Mozilla/5.0 (Windows NT 10.0; Win64; x64) AppleWebKit/537.36 (KHTML, like Gecko) Chrome/107.0.0.0 Safari/537.36","WebKit","Chrome","107.0.0.0","Windows","10.0","[0]","4","","",""
"22645","You see how a teacher is drawing a picture <br> T&uacute ves como un maestro pinta una foto","{""Q0"":1}","practice","67888","survey-likert","10","244649","0.0-3.0-0.5","10","1","2022-11-29 21:24:40","2df368f4e41f066fd1c82c297b4a1108","181.162.255.211","Mozilla/5.0 (Windows NT 10.0; Win64; x64) AppleWebKit/537.36 (KHTML, like Gecko) Chrome/107.0.0.0 Safari/537.36","WebKit","Chrome","107.0.0.0","Windows","10.0","[0]","1","","",""
"17940","You see how a teacher is drawing a picture <br> T&uacute ves como un maestro pinta una foto","{""Q0"":""Tu ves cómo un maestro dibuja una imagen.""}","practice_low_rate","67888","survey-text","11","262593","0.0-3.0-1.5-0.5","10","1","2022-11-29 21:24:40","2df368f4e41f066fd1c82c297b4a1108","181.162.255.211","Mozilla/5.0 (Windows NT 10.0; Win64; x64) AppleWebKit/537.36 (KHTML, like Gecko) Chrome/107.0.0.0 Safari/537.36","WebKit","Chrome","107.0.0.0","Windows","10.0","","","4","",""
"1863","<p style=""font-size:20px;"">You have now completed the practice session! </p>
        <p style=""font-size:20px;"">You will now move on to the main experiment. </p>
        <p style=""font-size:20px;"">Please click the button below to continue. </p>","0","movetoexp","67888","html-button-response","12","264458","0.0-4.0","10","1","2022-11-29 21:24:40","2df368f4e41f066fd1c82c297b4a1108","181.162.255.211","Mozilla/5.0 (Windows NT 10.0; Win64; x64) AppleWebKit/537.36 (KHTML, like Gecko) Chrome/107.0.0.0 Safari/537.36","WebKit","Chrome","107.0.0.0","Windows","10.0","","","","",""
"5047","You drop a bowling ball on a cracker <br> T&uacute tiras una bola de boliche a una galleta","{""Q0"":3}","trial","67888","survey-likert","13","269505","0.0-5.0-0.0","10","1","2022-11-29 21:24:40","2df368f4e41f066fd1c82c297b4a1108","181.162.255.211","Mozilla/5.0 (Windows NT 10.0; Win64; x64) AppleWebKit/537.36 (KHTML, like Gecko) Chrome/107.0.0.0 Safari/537.36","WebKit","Chrome","107.0.0.0","Windows","10.0","[0]","","4","3",""
"9525","You drop a bowling ball on an egg <br> T&uacute tiras una bola de boliche a un huevo","{""Q0"":4}","trial","67888","survey-likert","14","279033","0.0-5.0-0.1","10","1","2022-11-29 21:24:40","2df368f4e41f066fd1c82c297b4a1108","181.162.255.211","Mozilla/5.0 (Windows NT 10.0; Win64; x64) AppleWebKit/537.36 (KHTML, like Gecko) Chrome/107.0.0.0 Safari/537.36","WebKit","Chrome","107.0.0.0","Windows","10.0","[0]","","6","4",""
"7661","You drop a needle on the mouse pad <br> T&uacute tiras una aguja a la alfombrilla para el rat&oacuten","{""Q0"":2}","trial","67888","survey-likert","15","286697","0.0-5.0-0.2","10","1","2022-11-29 21:24:40","2df368f4e41f066fd1c82c297b4a1108","181.162.255.211","Mozilla/5.0 (Windows NT 10.0; Win64; x64) AppleWebKit/537.36 (KHTML, like Gecko) Chrome/107.0.0.0 Safari/537.36","WebKit","Chrome","107.0.0.0","Windows","10.0","[0]","","42","2",""
"11701","You drop a keyboard on the bed <br> T&uacute tiras un teclado a la cama","{""Q0"":4}","trial","67888","survey-likert","16","298401","0.0-5.0-0.3","10","1","2022-11-29 21:24:40","2df368f4e41f066fd1c82c297b4a1108","181.162.255.211","Mozilla/5.0 (Windows NT 10.0; Win64; x64) AppleWebKit/537.36 (KHTML, like Gecko) Chrome/107.0.0.0 Safari/537.36","WebKit","Chrome","107.0.0.0","Windows","10.0","[0]","","36","4",""
"4141","You see how an elephant is eating a watermelon <br> T&uacute ves como un elefante est&aacute comiendo una sand&iacutea","{""Q0"":4}","trial","67888","survey-likert","17","302545","0.0-5.0-0.4","10","1","2022-11-29 21:24:40","2df368f4e41f066fd1c82c297b4a1108","181.162.255.211","Mozilla/5.0 (Windows NT 10.0; Win64; x64) AppleWebKit/537.36 (KHTML, like Gecko) Chrome/107.0.0.0 Safari/537.36","WebKit","Chrome","107.0.0.0","Windows","10.0","[0]","","31","4",""
"4181","You drop a cabbage on the table <br> T&uacute tiras una col a la mesa","{""Q0"":4}","trial","67888","survey-likert","18","306729","0.0-5.0-0.5","10","1","2022-11-29 21:24:40","2df368f4e41f066fd1c82c297b4a1108","181.162.255.211","Mozilla/5.0 (Windows NT 10.0; Win64; x64) AppleWebKit/537.36 (KHTML, like Gecko) Chrome/107.0.0.0 Safari/537.36","WebKit","Chrome","107.0.0.0","Windows","10.0","[0]","","35","4",""
"4957","You drop a bowling ball on an iPAD <br> T&uacute tiras una bola de boliche a un iPad","{""Q0"":4}","trial","67888","survey-likert","19","311689","0.0-5.0-0.6","10","1","2022-11-29 21:24:40","2df368f4e41f066fd1c82c297b4a1108","181.162.255.211","Mozilla/5.0 (Windows NT 10.0; Win64; x64) AppleWebKit/537.36 (KHTML, like Gecko) Chrome/107.0.0.0 Safari/537.36","WebKit","Chrome","107.0.0.0","Windows","10.0","[0]","","12","4",""
"5525","You drop a bowling ball on a piece of cake <br> T&uacute tiras una bola de boliche a un trozo de pastel","{""Q0"":4}","trial","67888","survey-likert","20","317217","0.0-5.0-0.7","10","1","2022-11-29 21:24:40","2df368f4e41f066fd1c82c297b4a1108","181.162.255.211","Mozilla/5.0 (Windows NT 10.0; Win64; x64) AppleWebKit/537.36 (KHTML, like Gecko) Chrome/107.0.0.0 Safari/537.36","WebKit","Chrome","107.0.0.0","Windows","10.0","[0]","","2","4",""
"6662","You see how a president is writing in the notebook <br> T&uacute ves como un presidente est&aacute escribiendo en la libreta","{""Q0"":2}","trial","67888","survey-likert","21","323881","0.0-5.0-0.8","10","1","2022-11-29 21:24:40","2df368f4e41f066fd1c82c297b4a1108","181.162.255.211","Mozilla/5.0 (Windows NT 10.0; Win64; x64) AppleWebKit/537.36 (KHTML, like Gecko) Chrome/107.0.0.0 Safari/537.36","WebKit","Chrome","107.0.0.0","Windows","10.0","[0]","","63","2",""
"6557","You see how a boy is peeling a banana <br> T&uacute ves como un ni&ntildeo est&aacute pelando una banana","{""Q0"":4}","trial","67888","survey-likert","22","330441","0.0-5.0-0.9","10","1","2022-11-29 21:24:40","2df368f4e41f066fd1c82c297b4a1108","181.162.255.211","Mozilla/5.0 (Windows NT 10.0; Win64; x64) AppleWebKit/537.36 (KHTML, like Gecko) Chrome/107.0.0.0 Safari/537.36","WebKit","Chrome","107.0.0.0","Windows","10.0","[0]","","30","4",""
"7021","You see how a postman is driving a car <br> T&uacute ves como un cartero est&aacute conduciendo un coche","{""Q0"":4}","trial","67888","survey-likert","23","337465","0.0-5.0-0.10","10","1","2022-11-29 21:24:40","2df368f4e41f066fd1c82c297b4a1108","181.162.255.211","Mozilla/5.0 (Windows NT 10.0; Win64; x64) AppleWebKit/537.36 (KHTML, like Gecko) Chrome/107.0.0.0 Safari/537.36","WebKit","Chrome","107.0.0.0","Windows","10.0","[0]","","32","4",""
"4261","You see how a dentist is drinking a can of cola <br> T&uacute ves como un dentista est&aacute bebiendo una lata de cola","{""Q0"":4}","trial","67888","survey-likert","24","341729","0.0-5.0-0.11","10","1","2022-11-29 21:24:40","2df368f4e41f066fd1c82c297b4a1108","181.162.255.211","Mozilla/5.0 (Windows NT 10.0; Win64; x64) AppleWebKit/537.36 (KHTML, like Gecko) Chrome/107.0.0.0 Safari/537.36","WebKit","Chrome","107.0.0.0","Windows","10.0","[0]","","47","4",""
"11605","You drop a thermometer on the box <br> T&uacute tiras un term&oacutemetro a la caja","{""Q0"":2}","trial","67888","survey-likert","25","353337","0.0-5.0-0.12","10","1","2022-11-29 21:24:40","2df368f4e41f066fd1c82c297b4a1108","181.162.255.211","Mozilla/5.0 (Windows NT 10.0; Win64; x64) AppleWebKit/537.36 (KHTML, like Gecko) Chrome/107.0.0.0 Safari/537.36","WebKit","Chrome","107.0.0.0","Windows","10.0","[0]","","70","2",""
"6181","You drop a pencil on the shoe <br> T&uacute tiras un l&aacutepiz al zapato","{""Q0"":4}","trial","67888","survey-likert","26","359521","0.0-5.0-0.13","10","1","2022-11-29 21:24:40","2df368f4e41f066fd1c82c297b4a1108","181.162.255.211","Mozilla/5.0 (Windows NT 10.0; Win64; x64) AppleWebKit/537.36 (KHTML, like Gecko) Chrome/107.0.0.0 Safari/537.36","WebKit","Chrome","107.0.0.0","Windows","10.0","[0]","","40","4",""
"6645","You see how a nurse is taking a syringe <br> T&uacute ves como una enfermera est&aacute agarrando una jeringuilla","{""Q0"":4}","trial","67888","survey-likert","27","366169","0.0-5.0-0.14","10","1","2022-11-29 21:24:40","2df368f4e41f066fd1c82c297b4a1108","181.162.255.211","Mozilla/5.0 (Windows NT 10.0; Win64; x64) AppleWebKit/537.36 (KHTML, like Gecko) Chrome/107.0.0.0 Safari/537.36","WebKit","Chrome","107.0.0.0","Windows","10.0","[0]","","48","4",""
"4549","You see how a donkey is drinking water <br> T&uacute ves como un burro est&aacute bebiendo agua","{""Q0"":4}","trial","67888","survey-likert","28","370720","0.0-5.0-0.15","10","1","2022-11-29 21:24:40","2df368f4e41f066fd1c82c297b4a1108","181.162.255.211","Mozilla/5.0 (Windows NT 10.0; Win64; x64) AppleWebKit/537.36 (KHTML, like Gecko) Chrome/107.0.0.0 Safari/537.36","WebKit","Chrome","107.0.0.0","Windows","10.0","[0]","","45","4",""
"9101","You see how an astronaut is putting on a space suit <br> T&uacute ves como un astronauta se est&aacute poniendo su traje espacial","{""Q0"":4}","trial","67888","survey-likert","29","379825","0.0-5.0-0.16","10","1","2022-11-29 21:24:40","2df368f4e41f066fd1c82c297b4a1108","181.162.255.211","Mozilla/5.0 (Windows NT 10.0; Win64; x64) AppleWebKit/537.36 (KHTML, like Gecko) Chrome/107.0.0.0 Safari/537.36","WebKit","Chrome","107.0.0.0","Windows","10.0","[0]","","33","4",""
"7453","You see how a photographer is taking a photo of a lion <br> T&uacute ves como un fot&oacutegrafo est&aacute tomando una foto de un le&oacuten","{""Q0"":4}","trial","67888","survey-likert","30","387280","0.0-5.0-0.17","10","1","2022-11-29 21:24:40","2df368f4e41f066fd1c82c297b4a1108","181.162.255.211","Mozilla/5.0 (Windows NT 10.0; Win64; x64) AppleWebKit/537.36 (KHTML, like Gecko) Chrome/107.0.0.0 Safari/537.36","WebKit","Chrome","107.0.0.0","Windows","10.0","[0]","","72","4",""
"5325","You see how an actress is taking a microphone <br> T&uacute ves como una actriz est&aacute agarrando el micr&oacutefono","{""Q0"":4}","trial","67888","survey-likert","31","392609","0.0-5.0-0.18","10","1","2022-11-29 21:24:40","2df368f4e41f066fd1c82c297b4a1108","181.162.255.211","Mozilla/5.0 (Windows NT 10.0; Win64; x64) AppleWebKit/537.36 (KHTML, like Gecko) Chrome/107.0.0.0 Safari/537.36","WebKit","Chrome","107.0.0.0","Windows","10.0","[0]","","51","4",""
"10925","You see how a woman is taking money out of a wallet <br> T&uacute ves como una mujer est&aacute sacando dinero de su billetera","{""Q0"":3}","trial","67888","survey-likert","32","403536","0.0-5.0-0.19","10","1","2022-11-29 21:24:40","2df368f4e41f066fd1c82c297b4a1108","181.162.255.211","Mozilla/5.0 (Windows NT 10.0; Win64; x64) AppleWebKit/537.36 (KHTML, like Gecko) Chrome/107.0.0.0 Safari/537.36","WebKit","Chrome","107.0.0.0","Windows","10.0","[0]","","44","3",""
"5548","You drop a ring on the newspaper <br> T&uacute tiras un anillo al peri&oacutedico","{""Q0"":4}","trial","67888","survey-likert","33","409088","0.0-5.0-0.20","10","1","2022-11-29 21:24:40","2df368f4e41f066fd1c82c297b4a1108","181.162.255.211","Mozilla/5.0 (Windows NT 10.0; Win64; x64) AppleWebKit/537.36 (KHTML, like Gecko) Chrome/107.0.0.0 Safari/537.36","WebKit","Chrome","107.0.0.0","Windows","10.0","[0]","","41","4",""
"5653","You drop a bowling ball on a rice cake <br> T&uacute tiras una bola de boliche a una tortita de arroz","{""Q0"":4}","trial","67888","survey-likert","34","414744","0.0-5.0-0.21","10","1","2022-11-29 21:24:40","2df368f4e41f066fd1c82c297b4a1108","181.162.255.211","Mozilla/5.0 (Windows NT 10.0; Win64; x64) AppleWebKit/537.36 (KHTML, like Gecko) Chrome/107.0.0.0 Safari/537.36","WebKit","Chrome","107.0.0.0","Windows","10.0","[0]","","18","4",""
"6613","You see how a doctor is taking a stethoscope <br> T&uacute ves como un doctor est&aacute agarrando un estetoscopio","{""Q0"":4}","trial","67888","survey-likert","35","421360","0.0-5.0-0.22","10","1","2022-11-29 21:24:40","2df368f4e41f066fd1c82c297b4a1108","181.162.255.211","Mozilla/5.0 (Windows NT 10.0; Win64; x64) AppleWebKit/537.36 (KHTML, like Gecko) Chrome/107.0.0.0 Safari/537.36","WebKit","Chrome","107.0.0.0","Windows","10.0","[0]","","49","4",""
"4253","You drop a watch on the laptop <br> T&uacute tiras un reloj al port&aacutetil","{""Q0"":4}","trial","67888","survey-likert","36","425616","0.0-5.0-0.23","10","1","2022-11-29 21:24:40","2df368f4e41f066fd1c82c297b4a1108","181.162.255.211","Mozilla/5.0 (Windows NT 10.0; Win64; x64) AppleWebKit/537.36 (KHTML, like Gecko) Chrome/107.0.0.0 Safari/537.36","WebKit","Chrome","107.0.0.0","Windows","10.0","[0]","","37","4",""
"3717","You see how a man is boiling potatoes <br> T&uacute ves a un hombre est&aacute hirviendo papas","{""Q0"":4}","trial","67888","survey-likert","37","429336","0.0-5.0-0.24","10","1","2022-11-29 21:24:40","2df368f4e41f066fd1c82c297b4a1108","181.162.255.211","Mozilla/5.0 (Windows NT 10.0; Win64; x64) AppleWebKit/537.36 (KHTML, like Gecko) Chrome/107.0.0.0 Safari/537.36","WebKit","Chrome","107.0.0.0","Windows","10.0","[0]","","46","4",""
"6221","You drop a bowling ball on a hat <br> T&uacute tiras una bola de boliche a una gorra","{""Q0"":4}","trial","67888","survey-likert","38","435560","0.0-5.0-0.25","10","1","2022-11-29 21:24:40","2df368f4e41f066fd1c82c297b4a1108","181.162.255.211","Mozilla/5.0 (Windows NT 10.0; Win64; x64) AppleWebKit/537.36 (KHTML, like Gecko) Chrome/107.0.0.0 Safari/537.36","WebKit","Chrome","107.0.0.0","Windows","10.0","[0]","","10","4",""
"4308","You see how a parrot is eating an apple <br> T&uacute ves como un loro est&aacute comiendo una manzana","{""Q0"":4}","trial","67888","survey-likert","39","439872","0.0-5.0-0.26","10","1","2022-11-29 21:24:40","2df368f4e41f066fd1c82c297b4a1108","181.162.255.211","Mozilla/5.0 (Windows NT 10.0; Win64; x64) AppleWebKit/537.36 (KHTML, like Gecko) Chrome/107.0.0.0 Safari/537.36","WebKit","Chrome","107.0.0.0","Windows","10.0","[0]","","58","4",""
"5653","You see how a student is writing on a board <br> T&uacute ves como un estudiante est&aacute escribiendo en la pizarra","{""Q0"":4}","trial","67888","survey-likert","40","445528","0.0-5.0-0.27","10","1","2022-11-29 21:24:40","2df368f4e41f066fd1c82c297b4a1108","181.162.255.211","Mozilla/5.0 (Windows NT 10.0; Win64; x64) AppleWebKit/537.36 (KHTML, like Gecko) Chrome/107.0.0.0 Safari/537.36","WebKit","Chrome","107.0.0.0","Windows","10.0","[0]","","50","4",""
"8165","You see how a panda is resting on a tree <br> T&uacute ves como un panda est&aacute descansando en un &aacuterbol","{""Q0"":4}","trial","67888","survey-likert","41","453696","0.0-5.0-0.28","10","1","2022-11-29 21:24:40","2df368f4e41f066fd1c82c297b4a1108","181.162.255.211","Mozilla/5.0 (Windows NT 10.0; Win64; x64) AppleWebKit/537.36 (KHTML, like Gecko) Chrome/107.0.0.0 Safari/537.36","WebKit","Chrome","107.0.0.0","Windows","10.0","[0]","","57","4",""
"9293","You see how a hairdresser is taking scissors <br> T&uacute ves como una peluquera est&aacute agarrando las tijeras","{""Q0"":3}","trial","67888","survey-likert","42","462993","0.0-5.0-0.29","10","1","2022-11-29 21:24:40","2df368f4e41f066fd1c82c297b4a1108","181.162.255.211","Mozilla/5.0 (Windows NT 10.0; Win64; x64) AppleWebKit/537.36 (KHTML, like Gecko) Chrome/107.0.0.0 Safari/537.36","WebKit","Chrome","107.0.0.0","Windows","10.0","[0]","","60","3",""
"5981","You see how a butterfly is sitting on a flower <br> T&uacute ves como una mariposa est&aacute reposando en una flor","{""Q0"":4}","trial","67888","survey-likert","43","468977","0.0-5.0-0.30","10","1","2022-11-29 21:24:40","2df368f4e41f066fd1c82c297b4a1108","181.162.255.211","Mozilla/5.0 (Windows NT 10.0; Win64; x64) AppleWebKit/537.36 (KHTML, like Gecko) Chrome/107.0.0.0 Safari/537.36","WebKit","Chrome","107.0.0.0","Windows","10.0","[0]","","59","4",""
"4221","You drop a bowling ball on a tomato <br> T&uacute tiras una bola de boliche a un tomate","{""Q0"":4}","trial","67888","survey-likert","44","473201","0.0-5.0-0.31","10","1","2022-11-29 21:24:40","2df368f4e41f066fd1c82c297b4a1108","181.162.255.211","Mozilla/5.0 (Windows NT 10.0; Win64; x64) AppleWebKit/537.36 (KHTML, like Gecko) Chrome/107.0.0.0 Safari/537.36","WebKit","Chrome","107.0.0.0","Windows","10.0","[0]","","23","4",""
"5837","You drop a bowling ball on a paper cup <br> T&uacute tiras una bola de boliche a un vaso de papel","{""Q0"":4}","trial","67888","survey-likert","45","479041","0.0-5.0-0.32","10","1","2022-11-29 21:24:40","2df368f4e41f066fd1c82c297b4a1108","181.162.255.211","Mozilla/5.0 (Windows NT 10.0; Win64; x64) AppleWebKit/537.36 (KHTML, like Gecko) Chrome/107.0.0.0 Safari/537.36","WebKit","Chrome","107.0.0.0","Windows","10.0","[0]","","24","4",""
"5141","You drop a bowling ball on a chocolate muffin <br> T&uacute tiras una bola de boliche a una magdalena de chocolate","{""Q0"":4}","trial","67888","survey-likert","46","484185","0.0-5.0-0.33","10","1","2022-11-29 21:24:40","2df368f4e41f066fd1c82c297b4a1108","181.162.255.211","Mozilla/5.0 (Windows NT 10.0; Win64; x64) AppleWebKit/537.36 (KHTML, like Gecko) Chrome/107.0.0.0 Safari/537.36","WebKit","Chrome","107.0.0.0","Windows","10.0","[0]","","16","4",""
"5780","You drop a bowling ball on an empty can of beer <br> T&uacute tiras una bola de boliche a una lata de cerveza vac&iacutea","{""Q0"":4}","trial","67888","survey-likert","47","489969","0.0-5.0-0.34","10","1","2022-11-29 21:24:40","2df368f4e41f066fd1c82c297b4a1108","181.162.255.211","Mozilla/5.0 (Windows NT 10.0; Win64; x64) AppleWebKit/537.36 (KHTML, like Gecko) Chrome/107.0.0.0 Safari/537.36","WebKit","Chrome","107.0.0.0","Windows","10.0","[0]","","3","4",""
"8876","You drop a bowling ball on a chocolate ice-cream <br> T&uacute tiras una bola de boliche a un helado de chocolate","{""Q0"":4}","trial","67888","survey-likert","48","498849","0.0-5.0-0.35","10","1","2022-11-29 21:24:40","2df368f4e41f066fd1c82c297b4a1108","181.162.255.211","Mozilla/5.0 (Windows NT 10.0; Win64; x64) AppleWebKit/537.36 (KHTML, like Gecko) Chrome/107.0.0.0 Safari/537.36","WebKit","Chrome","107.0.0.0","Windows","10.0","[0]","","11","4",""
"5588","You see how a pilot is reading a book <br> T&uacute ves como un piloto est&aacute leyendo un libro","{""Q0"":4}","trial","67888","survey-likert","49","504441","0.0-5.0-0.36","10","1","2022-11-29 21:24:40","2df368f4e41f066fd1c82c297b4a1108","181.162.255.211","Mozilla/5.0 (Windows NT 10.0; Win64; x64) AppleWebKit/537.36 (KHTML, like Gecko) Chrome/107.0.0.0 Safari/537.36","WebKit","Chrome","107.0.0.0","Windows","10.0","[0]","","61","4",""
"5125","You drop a bowling ball on a wine glass <br> T&uacute tiras una bola de boliche a una copa de vino","{""Q0"":4}","trial","67888","survey-likert","50","509569","0.0-5.0-0.37","10","1","2022-11-29 21:24:40","2df368f4e41f066fd1c82c297b4a1108","181.162.255.211","Mozilla/5.0 (Windows NT 10.0; Win64; x64) AppleWebKit/537.36 (KHTML, like Gecko) Chrome/107.0.0.0 Safari/537.36","WebKit","Chrome","107.0.0.0","Windows","10.0","[0]","","5","4",""
"7309","You see how a musician is playing a guitar <br> T&uacute ves como un m&uacutesico est&aacute tocando la guitarra","{""Q0"":4}","trial","67888","survey-likert","51","516881","0.0-5.0-0.38","10","1","2022-11-29 21:24:40","2df368f4e41f066fd1c82c297b4a1108","181.162.255.211","Mozilla/5.0 (Windows NT 10.0; Win64; x64) AppleWebKit/537.36 (KHTML, like Gecko) Chrome/107.0.0.0 Safari/537.36","WebKit","Chrome","107.0.0.0","Windows","10.0","[0]","","27","4",""
"7109","You drop a towel on the TV <br> T&uacute tiras una toalla a la televisi&oacuten","{""Q0"":3}","trial","67888","survey-likert","52","523992","0.0-5.0-0.39","10","1","2022-11-29 21:24:40","2df368f4e41f066fd1c82c297b4a1108","181.162.255.211","Mozilla/5.0 (Windows NT 10.0; Win64; x64) AppleWebKit/537.36 (KHTML, like Gecko) Chrome/107.0.0.0 Safari/537.36","WebKit","Chrome","107.0.0.0","Windows","10.0","[0]","","53","3",""
"7349","You drop a bowling ball on a light bulb <br> T&uacute tiras una bola de boliche a una bombilla","{""Q0"":3}","trial","67888","survey-likert","53","531344","0.0-5.0-0.40","10","1","2022-11-29 21:24:40","2df368f4e41f066fd1c82c297b4a1108","181.162.255.211","Mozilla/5.0 (Windows NT 10.0; Win64; x64) AppleWebKit/537.36 (KHTML, like Gecko) Chrome/107.0.0.0 Safari/537.36","WebKit","Chrome","107.0.0.0","Windows","10.0","[0]","","14","3",""
"6925","You drop a bowling ball on a blackberry <br> T&uacute tiras una bola de boliche a una mora","{""Q0"":4}","trial","67888","survey-likert","54","538272","0.0-5.0-0.41","10","1","2022-11-29 21:24:40","2df368f4e41f066fd1c82c297b4a1108","181.162.255.211","Mozilla/5.0 (Windows NT 10.0; Win64; x64) AppleWebKit/537.36 (KHTML, like Gecko) Chrome/107.0.0.0 Safari/537.36","WebKit","Chrome","107.0.0.0","Windows","10.0","[0]","","8","4",""
"6765","You drop a bowling ball on an egg flan <br> T&uacute tiras una bola de boliche a un flan","{""Q0"":4}","trial","67888","survey-likert","55","545040","0.0-5.0-0.42","10","1","2022-11-29 21:24:40","2df368f4e41f066fd1c82c297b4a1108","181.162.255.211","Mozilla/5.0 (Windows NT 10.0; Win64; x64) AppleWebKit/537.36 (KHTML, like Gecko) Chrome/107.0.0.0 Safari/537.36","WebKit","Chrome","107.0.0.0","Windows","10.0","[0]","","7","4",""
"7516","You see how a teenage girl is playing the piano <br> T&uacute ves como una ni&ntildea adolescente est&aacute tocando el piano","{""Q0"":4}","trial","67888","survey-likert","56","552560","0.0-5.0-0.43","10","1","2022-11-29 21:24:40","2df368f4e41f066fd1c82c297b4a1108","181.162.255.211","Mozilla/5.0 (Windows NT 10.0; Win64; x64) AppleWebKit/537.36 (KHTML, like Gecko) Chrome/107.0.0.0 Safari/537.36","WebKit","Chrome","107.0.0.0","Windows","10.0","[0]","","54","4",""
"7261","You see how a police officer is talking on the phone <br> T&uacute ves como un polic&iacutea est&aacute hablando por el tel&eacutefono","{""Q0"":4}","trial","67888","survey-likert","57","559824","0.0-5.0-0.44","10","1","2022-11-29 21:24:40","2df368f4e41f066fd1c82c297b4a1108","181.162.255.211","Mozilla/5.0 (Windows NT 10.0; Win64; x64) AppleWebKit/537.36 (KHTML, like Gecko) Chrome/107.0.0.0 Safari/537.36","WebKit","Chrome","107.0.0.0","Windows","10.0","[0]","","62","4",""
"3909","You drop a bowling ball on a mirror <br> T&uacute tiras una bola de boliche a un espejo","{""Q0"":3}","trial","67888","survey-likert","58","563736","0.0-5.0-0.45","10","1","2022-11-29 21:24:40","2df368f4e41f066fd1c82c297b4a1108","181.162.255.211","Mozilla/5.0 (Windows NT 10.0; Win64; x64) AppleWebKit/537.36 (KHTML, like Gecko) Chrome/107.0.0.0 Safari/537.36","WebKit","Chrome","107.0.0.0","Windows","10.0","[0]","","15","3",""
"8148","You drop a cushion on the magazine <br> T&uacute tiras un coj&iacuten a la revista","{""Q0"":4}","trial","67888","survey-likert","59","571888","0.0-5.0-0.46","10","1","2022-11-29 21:24:40","2df368f4e41f066fd1c82c297b4a1108","181.162.255.211","Mozilla/5.0 (Windows NT 10.0; Win64; x64) AppleWebKit/537.36 (KHTML, like Gecko) Chrome/107.0.0.0 Safari/537.36","WebKit","Chrome","107.0.0.0","Windows","10.0","[0]","","38","4",""
"8044","You see how a horse is chewing hay <br> T&uacute ves como un caballo est&aacute masticando el heno","{""Q0"":4}","trial","67888","survey-likert","60","579937","0.0-5.0-0.47","10","1","2022-11-29 21:24:40","2df368f4e41f066fd1c82c297b4a1108","181.162.255.211","Mozilla/5.0 (Windows NT 10.0; Win64; x64) AppleWebKit/537.36 (KHTML, like Gecko) Chrome/107.0.0.0 Safari/537.36","WebKit","Chrome","107.0.0.0","Windows","10.0","[0]","","55","4",""
"4293","You drop a fork on the plate <br> T&uacute tiras un tenedor al plato","{""Q0"":4}","trial","67888","survey-likert","61","584233","0.0-5.0-0.48","10","1","2022-11-29 21:24:40","2df368f4e41f066fd1c82c297b4a1108","181.162.255.211","Mozilla/5.0 (Windows NT 10.0; Win64; x64) AppleWebKit/537.36 (KHTML, like Gecko) Chrome/107.0.0.0 Safari/537.36","WebKit","Chrome","107.0.0.0","Windows","10.0","[0]","","26","4",""
"5533","You drop a bowling ball on a piece of sushi <br> T&uacute tiras una bola de boliche a un pedazo de sushi","{""Q0"":4}","trial","67888","survey-likert","62","589769","0.0-5.0-0.49","10","1","2022-11-29 21:24:40","2df368f4e41f066fd1c82c297b4a1108","181.162.255.211","Mozilla/5.0 (Windows NT 10.0; Win64; x64) AppleWebKit/537.36 (KHTML, like Gecko) Chrome/107.0.0.0 Safari/537.36","WebKit","Chrome","107.0.0.0","Windows","10.0","[0]","","21","4",""
"4404","You drop a bowling ball on glasses <br> T&uacute tiras una bola de boliche a unas gafas","{""Q0"":4}","trial","67888","survey-likert","63","594177","0.0-5.0-0.50","10","1","2022-11-29 21:24:40","2df368f4e41f066fd1c82c297b4a1108","181.162.255.211","Mozilla/5.0 (Windows NT 10.0; Win64; x64) AppleWebKit/537.36 (KHTML, like Gecko) Chrome/107.0.0.0 Safari/537.36","WebKit","Chrome","107.0.0.0","Windows","10.0","[0]","","9","4",""
"6764","You drop a bowling ball on a porcelain figure <br> T&uacute tiras una bola de boliche a una figura de porcelana","{""Q0"":4}","trial","67888","survey-likert","64","600945","0.0-5.0-0.51","10","1","2022-11-29 21:24:40","2df368f4e41f066fd1c82c297b4a1108","181.162.255.211","Mozilla/5.0 (Windows NT 10.0; Win64; x64) AppleWebKit/537.36 (KHTML, like Gecko) Chrome/107.0.0.0 Safari/537.36","WebKit","Chrome","107.0.0.0","Windows","10.0","[0]","","1","4",""
"4348","You see how an old man is hammering a nail <br> T&uacute ves como un hombre anciano est&aacute martillando un clavo","{""Q0"":4}","trial","67888","survey-likert","65","605297","0.0-5.0-0.52","10","1","2022-11-29 21:24:40","2df368f4e41f066fd1c82c297b4a1108","181.162.255.211","Mozilla/5.0 (Windows NT 10.0; Win64; x64) AppleWebKit/537.36 (KHTML, like Gecko) Chrome/107.0.0.0 Safari/537.36","WebKit","Chrome","107.0.0.0","Windows","10.0","[0]","","29","4",""
"4204","You see how a man is shaving his beard <br> T&uacute ves como un hombre se est&aacute afeitando la barba","{""Q0"":4}","trial","67888","survey-likert","66","609505","0.0-5.0-0.53","10","1","2022-11-29 21:24:40","2df368f4e41f066fd1c82c297b4a1108","181.162.255.211","Mozilla/5.0 (Windows NT 10.0; Win64; x64) AppleWebKit/537.36 (KHTML, like Gecko) Chrome/107.0.0.0 Safari/537.36","WebKit","Chrome","107.0.0.0","Windows","10.0","[0]","","43","4",""
"7324","You drop a toothbrush on the sponge <br> T&uacute tiras un cepillo de dientes en la esponja","{""Q0"":4}","trial","67888","survey-likert","67","616833","0.0-5.0-0.54","10","1","2022-11-29 21:24:40","2df368f4e41f066fd1c82c297b4a1108","181.162.255.211","Mozilla/5.0 (Windows NT 10.0; Win64; x64) AppleWebKit/537.36 (KHTML, like Gecko) Chrome/107.0.0.0 Safari/537.36","WebKit","Chrome","107.0.0.0","Windows","10.0","[0]","","25","4",""
"4037","You see how a zebra is playing with a horse <br> T&uacute ves como una cebra est&aacute jugando con un caballo","{""Q0"":4}","trial","67888","survey-likert","68","620873","0.0-5.0-0.55","10","1","2022-11-29 21:24:40","2df368f4e41f066fd1c82c297b4a1108","181.162.255.211","Mozilla/5.0 (Windows NT 10.0; Win64; x64) AppleWebKit/537.36 (KHTML, like Gecko) Chrome/107.0.0.0 Safari/537.36","WebKit","Chrome","107.0.0.0","Windows","10.0","[0]","","66","4",""
"4660","You see how a woman is paying with a debit card <br> T&uacute ves como una mujer est&aacute pagando con una tarjeta de d&eacutebito","{""Q0"":4}","trial","67888","survey-likert","69","625537","0.0-5.0-0.56","10","1","2022-11-29 21:24:40","2df368f4e41f066fd1c82c297b4a1108","181.162.255.211","Mozilla/5.0 (Windows NT 10.0; Win64; x64) AppleWebKit/537.36 (KHTML, like Gecko) Chrome/107.0.0.0 Safari/537.36","WebKit","Chrome","107.0.0.0","Windows","10.0","[0]","","64","4",""
"4317","You see how a kitten is playing in the sandbox <br> T&uacute ves como un gatito est&aacute jugando en la caja de arena","{""Q0"":4}","trial","67888","survey-likert","70","629857","0.0-5.0-0.57","10","1","2022-11-29 21:24:40","2df368f4e41f066fd1c82c297b4a1108","181.162.255.211","Mozilla/5.0 (Windows NT 10.0; Win64; x64) AppleWebKit/537.36 (KHTML, like Gecko) Chrome/107.0.0.0 Safari/537.36","WebKit","Chrome","107.0.0.0","Windows","10.0","[0]","","52","4",""
"6268","You see how a puppy is playing with a ball <br> T&uacute ves como un cachorro est&aacute jugando con una pelota","{""Q0"":4}","trial","67888","survey-likert","71","636129","0.0-5.0-0.58","10","1","2022-11-29 21:24:40","2df368f4e41f066fd1c82c297b4a1108","181.162.255.211","Mozilla/5.0 (Windows NT 10.0; Win64; x64) AppleWebKit/537.36 (KHTML, like Gecko) Chrome/107.0.0.0 Safari/537.36","WebKit","Chrome","107.0.0.0","Windows","10.0","[0]","","34","4",""
"6493","You drop a bowling ball on a tile <br> T&uacute tiras una bola de boliche a una baldosa","{""Q0"":4}","trial","67888","survey-likert","72","642624","0.0-5.0-0.59","10","1","2022-11-29 21:24:40","2df368f4e41f066fd1c82c297b4a1108","181.162.255.211","Mozilla/5.0 (Windows NT 10.0; Win64; x64) AppleWebKit/537.36 (KHTML, like Gecko) Chrome/107.0.0.0 Safari/537.36","WebKit","Chrome","107.0.0.0","Windows","10.0","[0]","","22","4",""
"8956","You see how a cook is taking a knife <br> T&uacute ves como un cocinero est&aacute agarrando un cuchillo","{""Q0"":4}","trial","67888","survey-likert","73","651584","0.0-5.0-0.60","10","1","2022-11-29 21:24:40","2df368f4e41f066fd1c82c297b4a1108","181.162.255.211","Mozilla/5.0 (Windows NT 10.0; Win64; x64) AppleWebKit/537.36 (KHTML, like Gecko) Chrome/107.0.0.0 Safari/537.36","WebKit","Chrome","107.0.0.0","Windows","10.0","[0]","","71","4",""
"4868","You drop a bowling ball on a ceramic plate <br> T&uacute tiras una bola de boliche a un plato de cer&aacutemica","{""Q0"":4}","trial","67888","survey-likert","74","656456","0.0-5.0-0.61","10","1","2022-11-29 21:24:40","2df368f4e41f066fd1c82c297b4a1108","181.162.255.211","Mozilla/5.0 (Windows NT 10.0; Win64; x64) AppleWebKit/537.36 (KHTML, like Gecko) Chrome/107.0.0.0 Safari/537.36","WebKit","Chrome","107.0.0.0","Windows","10.0","[0]","","19","4",""
"5220","You drop a bowling ball on a strawberry <br> T&uacute tiras una bola de boliche a una fresa","{""Q0"":4}","trial","67888","survey-likert","75","661680","0.0-5.0-0.62","10","1","2022-11-29 21:24:40","2df368f4e41f066fd1c82c297b4a1108","181.162.255.211","Mozilla/5.0 (Windows NT 10.0; Win64; x64) AppleWebKit/537.36 (KHTML, like Gecko) Chrome/107.0.0.0 Safari/537.36","WebKit","Chrome","107.0.0.0","Windows","10.0","[0]","","20","4",""
"5389","You drop a bowling ball on a donut <br> T&uacute tiras una bola de boliche a una rosquilla","{""Q0"":4}","trial","67888","survey-likert","76","667072","0.0-5.0-0.63","10","1","2022-11-29 21:24:40","2df368f4e41f066fd1c82c297b4a1108","181.162.255.211","Mozilla/5.0 (Windows NT 10.0; Win64; x64) AppleWebKit/537.36 (KHTML, like Gecko) Chrome/107.0.0.0 Safari/537.36","WebKit","Chrome","107.0.0.0","Windows","10.0","[0]","","17","4",""
"5500","You see how a man is playing with a cat <br> T&uacute ves como un hombre est&aacute jugando con un gato","{""Q0"":4}","trial","67888","survey-likert","77","672576","0.0-5.0-0.64","10","1","2022-11-29 21:24:40","2df368f4e41f066fd1c82c297b4a1108","181.162.255.211","Mozilla/5.0 (Windows NT 10.0; Win64; x64) AppleWebKit/537.36 (KHTML, like Gecko) Chrome/107.0.0.0 Safari/537.36","WebKit","Chrome","107.0.0.0","Windows","10.0","[0]","","67","4",""
"4524","You drop a remote on the rug <br> T&uacute tiras un control remoto a la alfombra","{""Q0"":4}","trial","67888","survey-likert","78","677104","0.0-5.0-0.65","10","1","2022-11-29 21:24:40","2df368f4e41f066fd1c82c297b4a1108","181.162.255.211","Mozilla/5.0 (Windows NT 10.0; Win64; x64) AppleWebKit/537.36 (KHTML, like Gecko) Chrome/107.0.0.0 Safari/537.36","WebKit","Chrome","107.0.0.0","Windows","10.0","[0]","","39","4",""
"5445","You see how a giraffe is playing with a zebra <br> T&uacute ves como una jirafa est&aacute jugando con una cebra","{""Q0"":4}","trial","67888","survey-likert","79","682552","0.0-5.0-0.66","10","1","2022-11-29 21:24:40","2df368f4e41f066fd1c82c297b4a1108","181.162.255.211","Mozilla/5.0 (Windows NT 10.0; Win64; x64) AppleWebKit/537.36 (KHTML, like Gecko) Chrome/107.0.0.0 Safari/537.36","WebKit","Chrome","107.0.0.0","Windows","10.0","[0]","","65","4",""
"3468","You see how a mouse is eating cheese <br> T&uacute ves como el rat&oacuten est&aacute comiendo queso","{""Q0"":4}","trial","67888","survey-likert","80","686024","0.0-5.0-0.67","10","1","2022-11-29 21:24:40","2df368f4e41f066fd1c82c297b4a1108","181.162.255.211","Mozilla/5.0 (Windows NT 10.0; Win64; x64) AppleWebKit/537.36 (KHTML, like Gecko) Chrome/107.0.0.0 Safari/537.36","WebKit","Chrome","107.0.0.0","Windows","10.0","[0]","","56","4",""
"3980","You see how a thief is stealing a wallet <br> T&uacute ves como un ladr&oacuten est&aacute robando una billetera","{""Q0"":4}","trial","67888","survey-likert","81","690008","0.0-5.0-0.68","10","1","2022-11-29 21:24:40","2df368f4e41f066fd1c82c297b4a1108","181.162.255.211","Mozilla/5.0 (Windows NT 10.0; Win64; x64) AppleWebKit/537.36 (KHTML, like Gecko) Chrome/107.0.0.0 Safari/537.36","WebKit","Chrome","107.0.0.0","Windows","10.0","[0]","","68","4",""
"7580","You see how a cat is drinking water from a bowl <br> T&uacute ves como un gato est&aacute bebiendo agua de un cuenco","{""Q0"":4}","trial","67888","survey-likert","82","697592","0.0-5.0-0.69","10","1","2022-11-29 21:24:40","2df368f4e41f066fd1c82c297b4a1108","181.162.255.211","Mozilla/5.0 (Windows NT 10.0; Win64; x64) AppleWebKit/537.36 (KHTML, like Gecko) Chrome/107.0.0.0 Safari/537.36","WebKit","Chrome","107.0.0.0","Windows","10.0","[0]","","28","4",""
"3964","You see how an owl is sitting on the branch <br> T&uacute ves como un b&uacuteho est&aacute reposando en una rama","{""Q0"":4}","trial","67888","survey-likert","83","701560","0.0-5.0-0.70","10","1","2022-11-29 21:24:40","2df368f4e41f066fd1c82c297b4a1108","181.162.255.211","Mozilla/5.0 (Windows NT 10.0; Win64; x64) AppleWebKit/537.36 (KHTML, like Gecko) Chrome/107.0.0.0 Safari/537.36","WebKit","Chrome","107.0.0.0","Windows","10.0","[0]","","69","4",""
"5349","You drop a bowling ball on an iPhone <br> T&uacute tiras una bola de boliche a un iPhone","{""Q0"":3}","trial","67888","survey-likert","84","706912","0.0-5.0-0.71","10","1","2022-11-29 21:24:40","2df368f4e41f066fd1c82c297b4a1108","181.162.255.211","Mozilla/5.0 (Windows NT 10.0; Win64; x64) AppleWebKit/537.36 (KHTML, like Gecko) Chrome/107.0.0.0 Safari/537.36","WebKit","Chrome","107.0.0.0","Windows","10.0","[0]","","13","3",""
"4764","
    <p style=""font-size:20px;""> You have completed the experiment portion! </p>
    <p style=""font-size:20px;""> Before you are done, we would like you to answer some basic demographic questions. </p>
    <p style=""font-size:20px;""> Note that your answers to these questions will not affect your compensation/credit. </p>
    <p style=""font-size:20px;""> Click the button below to continue.</p>
    ","0","demo","67888","html-button-response","85","711680","0.0-6.0","10","1","2022-11-29 21:24:40","2df368f4e41f066fd1c82c297b4a1108","181.162.255.211","Mozilla/5.0 (Windows NT 10.0; Win64; x64) AppleWebKit/537.36 (KHTML, like Gecko) Chrome/107.0.0.0 Safari/537.36","WebKit","Chrome","107.0.0.0","Windows","10.0","","","","",""
"13356","","{""Age"":""28"",""Gender"":""Female"",""Education"":""18""}","demo","67888","survey-text","86","725040","0.0-7.0-0.0","10","1","2022-11-29 21:24:40","2df368f4e41f066fd1c82c297b4a1108","181.162.255.211","Mozilla/5.0 (Windows NT 10.0; Win64; x64) AppleWebKit/537.36 (KHTML, like Gecko) Chrome/107.0.0.0 Safari/537.36","WebKit","Chrome","107.0.0.0","Windows","10.0","","","","",""
"10884","","{""Race"":[""Other""]}","demo","67888","survey-multi-select","87","735928","0.0-7.0-1.0","10","1","2022-11-29 21:24:40","2df368f4e41f066fd1c82c297b4a1108","181.162.255.211","Mozilla/5.0 (Windows NT 10.0; Win64; x64) AppleWebKit/537.36 (KHTML, like Gecko) Chrome/107.0.0.0 Safari/537.36","WebKit","Chrome","107.0.0.0","Windows","10.0","[0]","","","",""
"6331","","{""Latino"":""Yes"",""Alert"":""Morning""}","demo","67888","survey-multi-choice","88","742264","0.0-7.0-2.0","10","1","2022-11-29 21:24:40","2df368f4e41f066fd1c82c297b4a1108","181.162.255.211","Mozilla/5.0 (Windows NT 10.0; Win64; x64) AppleWebKit/537.36 (KHTML, like Gecko) Chrome/107.0.0.0 Safari/537.36","WebKit","Chrome","107.0.0.0","Windows","10.0","[0,1]","","","",""
"29971","","{""Q0"":""Nothing, but I felt curious about how can affect the preposition \""on\"" in some sentences.""}","demo","67888","survey-text","89","772241","0.0-7.0-3.0","10","1","2022-11-29 21:24:40","2df368f4e41f066fd1c82c297b4a1108","181.162.255.211","Mozilla/5.0 (Windows NT 10.0; Win64; x64) AppleWebKit/537.36 (KHTML, like Gecko) Chrome/107.0.0.0 Safari/537.36","WebKit","Chrome","107.0.0.0","Windows","10.0","","","","",""
"8438","<p>Thank you for participating! </p><strong>Your completion code is: CXEJB7NH. Please copy-paste this code and submit it on Prolific.</strong><p>Click <a href=""https://drive.google.com/file/d/1c70cdHFlc0AaR6RujLWLJwWkv1RbHQJY/view?usp=sharing"" target=""_blank"" rel=""noopener noreferrer"">here</a> to access the debriefing form and know more about our research. <p> Please click the button below to finish the experiment and save your data.</p> <p> IMPORTANT: Please <strong>do not leave this page </strong> without clicking the button below.</p> <p> You may close the tab/window after you click the button below.","0","","","html-button-response","90","780681","0.0-8.0","10","1","2022-11-29 21:24:40","2df368f4e41f066fd1c82c297b4a1108","181.162.255.211","Mozilla/5.0 (Windows NT 10.0; Win64; x64) AppleWebKit/537.36 (KHTML, like Gecko) Chrome/107.0.0.0 Safari/537.36","WebKit","Chrome","107.0.0.0","Windows","10.0","","","","",""
