"rt","stimulus","response","typeoftrial","subject","trial_type","trial_index","time_elapsed","internal_node_id","run_id","condition","recorded_at","source_code_version","ip","user_agent","device","browser","browser_version","platform","platform_version","question_order","practice_rating","sentence_num","rating","Experiment"
"9993","
        <p style=""font-size:20px;""> Welcome! Thank you for your interest in our study. </p>
        <p style=""font-size:20px;""> This study is being conducted by researchers at Bowdoin College.</p>
        <p style=""font-size:20px;""> In this experiment, you will be asked to rate the accuracy of English and Spanish translations.</p>
        <p style=""font-size:20px;""> The entire experiment should not last more than 20 minutes. You will be paid $3 USD for your participation. </p>
        <p style=""font-size:20px;""> Please click <a href = ""https://drive.google.com/file/d/1L92a02eEKCpaAEipmqDcBCDR7rsarqFE/view?usp=sharing"" target = ""_blank"">here</a> to read the full consent form. </p>
        <p style=""font-size:20px;""> If you agree to participate, please click the button below to continue to experiment instructions.</p>
        ","0","consent","1316","html-button-response","0","9995","0.0-0.0","19","1","2022-11-29 21:24:48","2df368f4e41f066fd1c82c297b4a1108","181.75.185.239","Mozilla/5.0 (Windows NT 10.0; Win64; x64) AppleWebKit/537.36 (KHTML, like Gecko) Chrome/107.0.0.0 Safari/537.36","WebKit","Chrome","107.0.0.0","Windows","10.0","","","","",""
"2133","","{""ID"":""606b81830eadb0d0bbee2cb9""}","ID","1316","survey-text","1","12131","0.0-1.0","19","1","2022-11-29 21:24:48","2df368f4e41f066fd1c82c297b4a1108","181.75.185.239","Mozilla/5.0 (Windows NT 10.0; Win64; x64) AppleWebKit/537.36 (KHTML, like Gecko) Chrome/107.0.0.0 Safari/537.36","WebKit","Chrome","107.0.0.0","Windows","10.0","","","","",""
"6085","
        <p style=""font-size:20px;""> You are about to begin the practice test. </p>
        <p style=""font-size:20px;""> On each trial, you will see a sentence in English and its corresponding Spanish translation. </p>
        <p style=""font-size:20px;""> You will rate the accuracy of the translation on a scale from ""Not at all accurate"" to ""Very accurate."" </p>
        <p style=""font-size:20px;""> If you rate the translation as ""Somewhat innaccurate"" or ""Not at all accurate,"" you will be asked to provide your own translation or a reason why the translation is inaccurate. </p>
        <p style=""font-size:20px;""> Click the button below to continue to the practice session.</p>","0","instructions","1316","html-button-response","2","18217","0.0-2.0","19","1","2022-11-29 21:24:48","2df368f4e41f066fd1c82c297b4a1108","181.75.185.239","Mozilla/5.0 (Windows NT 10.0; Win64; x64) AppleWebKit/537.36 (KHTML, like Gecko) Chrome/107.0.0.0 Safari/537.36","WebKit","Chrome","107.0.0.0","Windows","10.0","","","","",""
"17080","You see how an artist is running <br> T&uacute ves como un artista est&aacute corriendo","{""Q0"":3}","practice","1316","survey-likert","3","35298","0.0-3.0-0.0","19","1","2022-11-29 21:24:48","2df368f4e41f066fd1c82c297b4a1108","181.75.185.239","Mozilla/5.0 (Windows NT 10.0; Win64; x64) AppleWebKit/537.36 (KHTML, like Gecko) Chrome/107.0.0.0 Safari/537.36","WebKit","Chrome","107.0.0.0","Windows","10.0","[0]","3","","",""
"30748","You drop a bowling ball on a mircrowave <br> T&uacute tiras una bola de boliche a un horno","{""Q0"":1}","practice","1316","survey-likert","4","66049","0.0-3.0-0.1","19","1","2022-11-29 21:24:48","2df368f4e41f066fd1c82c297b4a1108","181.75.185.239","Mozilla/5.0 (Windows NT 10.0; Win64; x64) AppleWebKit/537.36 (KHTML, like Gecko) Chrome/107.0.0.0 Safari/537.36","WebKit","Chrome","107.0.0.0","Windows","10.0","[0]","1","","",""
"20494","You drop a bowling ball on a mircrowave <br> T&uacute tiras una bola de boliche a un horno","{""Q0"":""tiras un bolo al microondas""}","practice_low_rate","1316","survey-text","5","86547","0.0-3.0-1.1-0.1","19","1","2022-11-29 21:24:48","2df368f4e41f066fd1c82c297b4a1108","181.75.185.239","Mozilla/5.0 (Windows NT 10.0; Win64; x64) AppleWebKit/537.36 (KHTML, like Gecko) Chrome/107.0.0.0 Safari/537.36","WebKit","Chrome","107.0.0.0","Windows","10.0","","","6","",""
"20841","You see how a teacher is drawing a picture <br> T&uacute ves como un maestro pinta una foto","{""Q0"":2}","practice","1316","survey-likert","6","107389","0.0-3.0-0.2","19","1","2022-11-29 21:24:48","2df368f4e41f066fd1c82c297b4a1108","181.75.185.239","Mozilla/5.0 (Windows NT 10.0; Win64; x64) AppleWebKit/537.36 (KHTML, like Gecko) Chrome/107.0.0.0 Safari/537.36","WebKit","Chrome","107.0.0.0","Windows","10.0","[0]","2","","",""
"13450","You drop a rock on a phone <br> T&uacute tiras una piedra a un tel&eacutefono","{""Q0"":1}","practice","1316","survey-likert","7","120841","0.0-3.0-0.3","19","1","2022-11-29 21:24:48","2df368f4e41f066fd1c82c297b4a1108","181.75.185.239","Mozilla/5.0 (Windows NT 10.0; Win64; x64) AppleWebKit/537.36 (KHTML, like Gecko) Chrome/107.0.0.0 Safari/537.36","WebKit","Chrome","107.0.0.0","Windows","10.0","[0]","1","","",""
"10453","You drop a rock on a phone <br> T&uacute tiras una piedra a un tel&eacutefono","{""Q0"":""sueltas una piedra en el telefono""}","practice_low_rate","1316","survey-text","8","131297","0.0-3.0-1.3-0.3","19","1","2022-11-29 21:24:48","2df368f4e41f066fd1c82c297b4a1108","181.75.185.239","Mozilla/5.0 (Windows NT 10.0; Win64; x64) AppleWebKit/537.36 (KHTML, like Gecko) Chrome/107.0.0.0 Safari/537.36","WebKit","Chrome","107.0.0.0","Windows","10.0","","","1","",""
"5588","You see how a duck is playing with a pumpkin <br> T&uacute ves como un pato est&aacute jugando con una calabaza","{""Q0"":4}","practice","1316","survey-likert","9","136886","0.0-3.0-0.4","19","1","2022-11-29 21:24:48","2df368f4e41f066fd1c82c297b4a1108","181.75.185.239","Mozilla/5.0 (Windows NT 10.0; Win64; x64) AppleWebKit/537.36 (KHTML, like Gecko) Chrome/107.0.0.0 Safari/537.36","WebKit","Chrome","107.0.0.0","Windows","10.0","[0]","4","","",""
"11524","You see how a tiger is playing with a goose <br> T&uacute ves como un le&oacuten come una pizza","{""Q0"":0}","practice","1316","survey-likert","10","148412","0.0-3.0-0.5","19","1","2022-11-29 21:24:48","2df368f4e41f066fd1c82c297b4a1108","181.75.185.239","Mozilla/5.0 (Windows NT 10.0; Win64; x64) AppleWebKit/537.36 (KHTML, like Gecko) Chrome/107.0.0.0 Safari/537.36","WebKit","Chrome","107.0.0.0","Windows","10.0","[0]","0","","",""
"7353","You see how a tiger is playing with a goose <br> T&uacute ves como un le&oacuten come una pizza","{""Q0"":""ves como un tigre juega con un ganso""}","practice_low_rate","1316","survey-text","11","155768","0.0-3.0-1.5-0.5","19","1","2022-11-29 21:24:48","2df368f4e41f066fd1c82c297b4a1108","181.75.185.239","Mozilla/5.0 (Windows NT 10.0; Win64; x64) AppleWebKit/537.36 (KHTML, like Gecko) Chrome/107.0.0.0 Safari/537.36","WebKit","Chrome","107.0.0.0","Windows","10.0","","","5","",""
"1610","<p style=""font-size:20px;"">You have now completed the practice session! </p>
        <p style=""font-size:20px;"">You will now move on to the main experiment. </p>
        <p style=""font-size:20px;"">Please click the button below to continue. </p>","0","movetoexp","1316","html-button-response","12","157379","0.0-4.0","19","1","2022-11-29 21:24:48","2df368f4e41f066fd1c82c297b4a1108","181.75.185.239","Mozilla/5.0 (Windows NT 10.0; Win64; x64) AppleWebKit/537.36 (KHTML, like Gecko) Chrome/107.0.0.0 Safari/537.36","WebKit","Chrome","107.0.0.0","Windows","10.0","","","","",""
"13640","You drop a toothbrush on the sponge <br> T&uacute tiras un cepillo de dientes en la esponja","{""Q0"":3}","trial","1316","survey-likert","13","171019","0.0-5.0-0.0","19","1","2022-11-29 21:24:48","2df368f4e41f066fd1c82c297b4a1108","181.75.185.239","Mozilla/5.0 (Windows NT 10.0; Win64; x64) AppleWebKit/537.36 (KHTML, like Gecko) Chrome/107.0.0.0 Safari/537.36","WebKit","Chrome","107.0.0.0","Windows","10.0","[0]","","25","3",""
"5721","You drop a bowling ball on an iPAD <br> T&uacute tiras una bola de boliche a un iPad","{""Q0"":4}","trial","1316","survey-likert","14","176742","0.0-5.0-0.1","19","1","2022-11-29 21:24:48","2df368f4e41f066fd1c82c297b4a1108","181.75.185.239","Mozilla/5.0 (Windows NT 10.0; Win64; x64) AppleWebKit/537.36 (KHTML, like Gecko) Chrome/107.0.0.0 Safari/537.36","WebKit","Chrome","107.0.0.0","Windows","10.0","[0]","","12","4",""
"10015","You drop a keyboard on the bed <br> T&uacute tiras un teclado a la cama","{""Q0"":3}","trial","1316","survey-likert","15","186759","0.0-5.0-0.2","19","1","2022-11-29 21:24:48","2df368f4e41f066fd1c82c297b4a1108","181.75.185.239","Mozilla/5.0 (Windows NT 10.0; Win64; x64) AppleWebKit/537.36 (KHTML, like Gecko) Chrome/107.0.0.0 Safari/537.36","WebKit","Chrome","107.0.0.0","Windows","10.0","[0]","","36","3",""
"4237","You drop a cushion on the magazine <br> T&uacute tiras un coj&iacuten a la revista","{""Q0"":3}","trial","1316","survey-likert","16","190998","0.0-5.0-0.3","19","1","2022-11-29 21:24:48","2df368f4e41f066fd1c82c297b4a1108","181.75.185.239","Mozilla/5.0 (Windows NT 10.0; Win64; x64) AppleWebKit/537.36 (KHTML, like Gecko) Chrome/107.0.0.0 Safari/537.36","WebKit","Chrome","107.0.0.0","Windows","10.0","[0]","","38","3",""
"12280","You see how an elephant is eating a watermelon <br> T&uacute ves como un elefante est&aacute comiendo una sand&iacutea","{""Q0"":4}","trial","1316","survey-likert","17","203280","0.0-5.0-0.4","19","1","2022-11-29 21:24:48","2df368f4e41f066fd1c82c297b4a1108","181.75.185.239","Mozilla/5.0 (Windows NT 10.0; Win64; x64) AppleWebKit/537.36 (KHTML, like Gecko) Chrome/107.0.0.0 Safari/537.36","WebKit","Chrome","107.0.0.0","Windows","10.0","[0]","","31","4",""
"12033","You drop a remote on the rug <br> T&uacute tiras un control remoto a la alfombra","{""Q0"":4}","trial","1316","survey-likert","18","215315","0.0-5.0-0.5","19","1","2022-11-29 21:24:48","2df368f4e41f066fd1c82c297b4a1108","181.75.185.239","Mozilla/5.0 (Windows NT 10.0; Win64; x64) AppleWebKit/537.36 (KHTML, like Gecko) Chrome/107.0.0.0 Safari/537.36","WebKit","Chrome","107.0.0.0","Windows","10.0","[0]","","39","4",""
"8507","You see how a nurse is taking a syringe <br> T&uacute ves como una enfermera est&aacute agarrando una jeringuilla","{""Q0"":3}","trial","1316","survey-likert","19","223824","0.0-5.0-0.6","19","1","2022-11-29 21:24:48","2df368f4e41f066fd1c82c297b4a1108","181.75.185.239","Mozilla/5.0 (Windows NT 10.0; Win64; x64) AppleWebKit/537.36 (KHTML, like Gecko) Chrome/107.0.0.0 Safari/537.36","WebKit","Chrome","107.0.0.0","Windows","10.0","[0]","","48","3",""
"10911","You drop a needle on the mouse pad <br> T&uacute tiras una aguja a la alfombrilla para el rat&oacuten","{""Q0"":3}","trial","1316","survey-likert","20","234738","0.0-5.0-0.7","19","1","2022-11-29 21:24:48","2df368f4e41f066fd1c82c297b4a1108","181.75.185.239","Mozilla/5.0 (Windows NT 10.0; Win64; x64) AppleWebKit/537.36 (KHTML, like Gecko) Chrome/107.0.0.0 Safari/537.36","WebKit","Chrome","107.0.0.0","Windows","10.0","[0]","","42","3",""
"8490","You see how an actress is taking a microphone <br> T&uacute ves como una actriz est&aacute agarrando el micr&oacutefono","{""Q0"":3}","trial","1316","survey-likert","21","243230","0.0-5.0-0.8","19","1","2022-11-29 21:24:48","2df368f4e41f066fd1c82c297b4a1108","181.75.185.239","Mozilla/5.0 (Windows NT 10.0; Win64; x64) AppleWebKit/537.36 (KHTML, like Gecko) Chrome/107.0.0.0 Safari/537.36","WebKit","Chrome","107.0.0.0","Windows","10.0","[0]","","51","3",""
"3540","You see how a pilot is reading a book <br> T&uacute ves como un piloto est&aacute leyendo un libro","{""Q0"":4}","trial","1316","survey-likert","22","246772","0.0-5.0-0.9","19","1","2022-11-29 21:24:48","2df368f4e41f066fd1c82c297b4a1108","181.75.185.239","Mozilla/5.0 (Windows NT 10.0; Win64; x64) AppleWebKit/537.36 (KHTML, like Gecko) Chrome/107.0.0.0 Safari/537.36","WebKit","Chrome","107.0.0.0","Windows","10.0","[0]","","61","4",""
"4906","You drop a bowling ball on a porcelain figure <br> T&uacute tiras una bola de boliche a una figura de porcelana","{""Q0"":4}","trial","1316","survey-likert","23","251680","0.0-5.0-0.10","19","1","2022-11-29 21:24:48","2df368f4e41f066fd1c82c297b4a1108","181.75.185.239","Mozilla/5.0 (Windows NT 10.0; Win64; x64) AppleWebKit/537.36 (KHTML, like Gecko) Chrome/107.0.0.0 Safari/537.36","WebKit","Chrome","107.0.0.0","Windows","10.0","[0]","","1","4",""
"3668","You see how a thief is stealing a wallet <br> T&uacute ves como un ladr&oacuten est&aacute robando una billetera","{""Q0"":4}","trial","1316","survey-likert","24","255350","0.0-5.0-0.11","19","1","2022-11-29 21:24:48","2df368f4e41f066fd1c82c297b4a1108","181.75.185.239","Mozilla/5.0 (Windows NT 10.0; Win64; x64) AppleWebKit/537.36 (KHTML, like Gecko) Chrome/107.0.0.0 Safari/537.36","WebKit","Chrome","107.0.0.0","Windows","10.0","[0]","","68","4",""
"8788","You drop a bowling ball on an empty can of beer <br> T&uacute tiras una bola de boliche a una lata de cerveza vac&iacutea","{""Q0"":3}","trial","1316","survey-likert","25","264140","0.0-5.0-0.12","19","1","2022-11-29 21:24:48","2df368f4e41f066fd1c82c297b4a1108","181.75.185.239","Mozilla/5.0 (Windows NT 10.0; Win64; x64) AppleWebKit/537.36 (KHTML, like Gecko) Chrome/107.0.0.0 Safari/537.36","WebKit","Chrome","107.0.0.0","Windows","10.0","[0]","","3","3",""
"5195","You see how a musician is playing a guitar <br> T&uacute ves como un m&uacutesico est&aacute tocando la guitarra","{""Q0"":4}","trial","1316","survey-likert","26","269337","0.0-5.0-0.13","19","1","2022-11-29 21:24:48","2df368f4e41f066fd1c82c297b4a1108","181.75.185.239","Mozilla/5.0 (Windows NT 10.0; Win64; x64) AppleWebKit/537.36 (KHTML, like Gecko) Chrome/107.0.0.0 Safari/537.36","WebKit","Chrome","107.0.0.0","Windows","10.0","[0]","","27","4",""
"9837","You drop a bowling ball on a wine glass <br> T&uacute tiras una bola de boliche a una copa de vino","{""Q0"":3}","trial","1316","survey-likert","27","279176","0.0-5.0-0.14","19","1","2022-11-29 21:24:48","2df368f4e41f066fd1c82c297b4a1108","181.75.185.239","Mozilla/5.0 (Windows NT 10.0; Win64; x64) AppleWebKit/537.36 (KHTML, like Gecko) Chrome/107.0.0.0 Safari/537.36","WebKit","Chrome","107.0.0.0","Windows","10.0","[0]","","5","3",""
"3660","You see how a donkey is drinking water <br> T&uacute ves como un burro est&aacute bebiendo agua","{""Q0"":4}","trial","1316","survey-likert","28","282838","0.0-5.0-0.15","19","1","2022-11-29 21:24:48","2df368f4e41f066fd1c82c297b4a1108","181.75.185.239","Mozilla/5.0 (Windows NT 10.0; Win64; x64) AppleWebKit/537.36 (KHTML, like Gecko) Chrome/107.0.0.0 Safari/537.36","WebKit","Chrome","107.0.0.0","Windows","10.0","[0]","","45","4",""
"6577","You see how a photographer is taking a photo of a lion <br> T&uacute ves como un fot&oacutegrafo est&aacute tomando una foto de un le&oacuten","{""Q0"":4}","trial","1316","survey-likert","29","289417","0.0-5.0-0.16","19","1","2022-11-29 21:24:48","2df368f4e41f066fd1c82c297b4a1108","181.75.185.239","Mozilla/5.0 (Windows NT 10.0; Win64; x64) AppleWebKit/537.36 (KHTML, like Gecko) Chrome/107.0.0.0 Safari/537.36","WebKit","Chrome","107.0.0.0","Windows","10.0","[0]","","72","4",""
"5848","You drop a bowling ball on a tomato <br> T&uacute tiras una bola de boliche a un tomate","{""Q0"":4}","trial","1316","survey-likert","30","295267","0.0-5.0-0.17","19","1","2022-11-29 21:24:48","2df368f4e41f066fd1c82c297b4a1108","181.75.185.239","Mozilla/5.0 (Windows NT 10.0; Win64; x64) AppleWebKit/537.36 (KHTML, like Gecko) Chrome/107.0.0.0 Safari/537.36","WebKit","Chrome","107.0.0.0","Windows","10.0","[0]","","23","4",""
"9638","You drop a bowling ball on a chocolate muffin <br> T&uacute tiras una bola de boliche a una magdalena de chocolate","{""Q0"":2}","trial","1316","survey-likert","31","304907","0.0-5.0-0.18","19","1","2022-11-29 21:24:48","2df368f4e41f066fd1c82c297b4a1108","181.75.185.239","Mozilla/5.0 (Windows NT 10.0; Win64; x64) AppleWebKit/537.36 (KHTML, like Gecko) Chrome/107.0.0.0 Safari/537.36","WebKit","Chrome","107.0.0.0","Windows","10.0","[0]","","16","2",""
"5733","You drop a bowling ball on a rice cake <br> T&uacute tiras una bola de boliche a una tortita de arroz","{""Q0"":3}","trial","1316","survey-likert","32","310643","0.0-5.0-0.19","19","1","2022-11-29 21:24:48","2df368f4e41f066fd1c82c297b4a1108","181.75.185.239","Mozilla/5.0 (Windows NT 10.0; Win64; x64) AppleWebKit/537.36 (KHTML, like Gecko) Chrome/107.0.0.0 Safari/537.36","WebKit","Chrome","107.0.0.0","Windows","10.0","[0]","","18","3",""
"5329","You drop a bowling ball on a paper cup <br> T&uacute tiras una bola de boliche a un vaso de papel","{""Q0"":4}","trial","1316","survey-likert","33","315974","0.0-5.0-0.20","19","1","2022-11-29 21:24:48","2df368f4e41f066fd1c82c297b4a1108","181.75.185.239","Mozilla/5.0 (Windows NT 10.0; Win64; x64) AppleWebKit/537.36 (KHTML, like Gecko) Chrome/107.0.0.0 Safari/537.36","WebKit","Chrome","107.0.0.0","Windows","10.0","[0]","","24","4",""
"3720","You see how a teenage girl is playing the piano <br> T&uacute ves como una ni&ntildea adolescente est&aacute tocando el piano","{""Q0"":4}","trial","1316","survey-likert","34","319696","0.0-5.0-0.21","19","1","2022-11-29 21:24:48","2df368f4e41f066fd1c82c297b4a1108","181.75.185.239","Mozilla/5.0 (Windows NT 10.0; Win64; x64) AppleWebKit/537.36 (KHTML, like Gecko) Chrome/107.0.0.0 Safari/537.36","WebKit","Chrome","107.0.0.0","Windows","10.0","[0]","","54","4",""
"4549","You see how a cook is taking a knife <br> T&uacute ves como un cocinero est&aacute agarrando un cuchillo","{""Q0"":4}","trial","1316","survey-likert","35","324247","0.0-5.0-0.22","19","1","2022-11-29 21:24:48","2df368f4e41f066fd1c82c297b4a1108","181.75.185.239","Mozilla/5.0 (Windows NT 10.0; Win64; x64) AppleWebKit/537.36 (KHTML, like Gecko) Chrome/107.0.0.0 Safari/537.36","WebKit","Chrome","107.0.0.0","Windows","10.0","[0]","","71","4",""
"3933","You drop a bowling ball on an iPhone <br> T&uacute tiras una bola de boliche a un iPhone","{""Q0"":4}","trial","1316","survey-likert","36","328182","0.0-5.0-0.23","19","1","2022-11-29 21:24:48","2df368f4e41f066fd1c82c297b4a1108","181.75.185.239","Mozilla/5.0 (Windows NT 10.0; Win64; x64) AppleWebKit/537.36 (KHTML, like Gecko) Chrome/107.0.0.0 Safari/537.36","WebKit","Chrome","107.0.0.0","Windows","10.0","[0]","","13","4",""
"4337","You see how a woman is paying with a debit card <br> T&uacute ves como una mujer est&aacute pagando con una tarjeta de d&eacutebito","{""Q0"":4}","trial","1316","survey-likert","37","332521","0.0-5.0-0.24","19","1","2022-11-29 21:24:48","2df368f4e41f066fd1c82c297b4a1108","181.75.185.239","Mozilla/5.0 (Windows NT 10.0; Win64; x64) AppleWebKit/537.36 (KHTML, like Gecko) Chrome/107.0.0.0 Safari/537.36","WebKit","Chrome","107.0.0.0","Windows","10.0","[0]","","64","4",""
"4292","You see how a man is boiling potatoes <br> T&uacute ves a un hombre est&aacute hirviendo papas","{""Q0"":4}","trial","1316","survey-likert","38","336815","0.0-5.0-0.25","19","1","2022-11-29 21:24:48","2df368f4e41f066fd1c82c297b4a1108","181.75.185.239","Mozilla/5.0 (Windows NT 10.0; Win64; x64) AppleWebKit/537.36 (KHTML, like Gecko) Chrome/107.0.0.0 Safari/537.36","WebKit","Chrome","107.0.0.0","Windows","10.0","[0]","","46","4",""
"4601","You see how a butterfly is sitting on a flower <br> T&uacute ves como una mariposa est&aacute reposando en una flor","{""Q0"":3}","trial","1316","survey-likert","39","341418","0.0-5.0-0.26","19","1","2022-11-29 21:24:48","2df368f4e41f066fd1c82c297b4a1108","181.75.185.239","Mozilla/5.0 (Windows NT 10.0; Win64; x64) AppleWebKit/537.36 (KHTML, like Gecko) Chrome/107.0.0.0 Safari/537.36","WebKit","Chrome","107.0.0.0","Windows","10.0","[0]","","59","3",""
"4661","You drop a bowling ball on a hat <br> T&uacute tiras una bola de boliche a una gorra","{""Q0"":4}","trial","1316","survey-likert","40","346081","0.0-5.0-0.27","19","1","2022-11-29 21:24:48","2df368f4e41f066fd1c82c297b4a1108","181.75.185.239","Mozilla/5.0 (Windows NT 10.0; Win64; x64) AppleWebKit/537.36 (KHTML, like Gecko) Chrome/107.0.0.0 Safari/537.36","WebKit","Chrome","107.0.0.0","Windows","10.0","[0]","","10","4",""
"6833","You drop a bowling ball on a ceramic plate <br> T&uacute tiras una bola de boliche a un plato de cer&aacutemica","{""Q0"":3}","trial","1316","survey-likert","41","352916","0.0-5.0-0.28","19","1","2022-11-29 21:24:48","2df368f4e41f066fd1c82c297b4a1108","181.75.185.239","Mozilla/5.0 (Windows NT 10.0; Win64; x64) AppleWebKit/537.36 (KHTML, like Gecko) Chrome/107.0.0.0 Safari/537.36","WebKit","Chrome","107.0.0.0","Windows","10.0","[0]","","19","3",""
"3640","You see how a doctor is taking a stethoscope <br> T&uacute ves como un doctor est&aacute agarrando un estetoscopio","{""Q0"":4}","trial","1316","survey-likert","42","356558","0.0-5.0-0.29","19","1","2022-11-29 21:24:48","2df368f4e41f066fd1c82c297b4a1108","181.75.185.239","Mozilla/5.0 (Windows NT 10.0; Win64; x64) AppleWebKit/537.36 (KHTML, like Gecko) Chrome/107.0.0.0 Safari/537.36","WebKit","Chrome","107.0.0.0","Windows","10.0","[0]","","49","4",""
"3842","You see how a panda is resting on a tree <br> T&uacute ves como un panda est&aacute descansando en un &aacuterbol","{""Q0"":4}","trial","1316","survey-likert","43","360402","0.0-5.0-0.30","19","1","2022-11-29 21:24:48","2df368f4e41f066fd1c82c297b4a1108","181.75.185.239","Mozilla/5.0 (Windows NT 10.0; Win64; x64) AppleWebKit/537.36 (KHTML, like Gecko) Chrome/107.0.0.0 Safari/537.36","WebKit","Chrome","107.0.0.0","Windows","10.0","[0]","","57","4",""
"8863","You drop a bowling ball on glasses <br> T&uacute tiras una bola de boliche a unas gafas","{""Q0"":3}","trial","1316","survey-likert","44","369267","0.0-5.0-0.31","19","1","2022-11-29 21:24:48","2df368f4e41f066fd1c82c297b4a1108","181.75.185.239","Mozilla/5.0 (Windows NT 10.0; Win64; x64) AppleWebKit/537.36 (KHTML, like Gecko) Chrome/107.0.0.0 Safari/537.36","WebKit","Chrome","107.0.0.0","Windows","10.0","[0]","","9","3",""
"5151","You drop a pencil on the shoe <br> T&uacute tiras un l&aacutepiz al zapato","{""Q0"":4}","trial","1316","survey-likert","45","374420","0.0-5.0-0.32","19","1","2022-11-29 21:24:48","2df368f4e41f066fd1c82c297b4a1108","181.75.185.239","Mozilla/5.0 (Windows NT 10.0; Win64; x64) AppleWebKit/537.36 (KHTML, like Gecko) Chrome/107.0.0.0 Safari/537.36","WebKit","Chrome","107.0.0.0","Windows","10.0","[0]","","40","4",""
"4553","You see how a hairdresser is taking scissors <br> T&uacute ves como una peluquera est&aacute agarrando las tijeras","{""Q0"":4}","trial","1316","survey-likert","46","378976","0.0-5.0-0.33","19","1","2022-11-29 21:24:48","2df368f4e41f066fd1c82c297b4a1108","181.75.185.239","Mozilla/5.0 (Windows NT 10.0; Win64; x64) AppleWebKit/537.36 (KHTML, like Gecko) Chrome/107.0.0.0 Safari/537.36","WebKit","Chrome","107.0.0.0","Windows","10.0","[0]","","60","4",""
"4169","You see how a parrot is eating an apple <br> T&uacute ves como un loro est&aacute comiendo una manzana","{""Q0"":4}","trial","1316","survey-likert","47","383147","0.0-5.0-0.34","19","1","2022-11-29 21:24:48","2df368f4e41f066fd1c82c297b4a1108","181.75.185.239","Mozilla/5.0 (Windows NT 10.0; Win64; x64) AppleWebKit/537.36 (KHTML, like Gecko) Chrome/107.0.0.0 Safari/537.36","WebKit","Chrome","107.0.0.0","Windows","10.0","[0]","","58","4",""
"11109","You see how an old man is hammering a nail <br> T&uacute ves como un hombre anciano est&aacute martillando un clavo","{""Q0"":2}","trial","1316","survey-likert","48","394258","0.0-5.0-0.35","19","1","2022-11-29 21:24:48","2df368f4e41f066fd1c82c297b4a1108","181.75.185.239","Mozilla/5.0 (Windows NT 10.0; Win64; x64) AppleWebKit/537.36 (KHTML, like Gecko) Chrome/107.0.0.0 Safari/537.36","WebKit","Chrome","107.0.0.0","Windows","10.0","[0]","","29","2",""
"3538","You see how a man is playing with a cat <br> T&uacute ves como un hombre est&aacute jugando con un gato","{""Q0"":4}","trial","1316","survey-likert","49","397799","0.0-5.0-0.36","19","1","2022-11-29 21:24:48","2df368f4e41f066fd1c82c297b4a1108","181.75.185.239","Mozilla/5.0 (Windows NT 10.0; Win64; x64) AppleWebKit/537.36 (KHTML, like Gecko) Chrome/107.0.0.0 Safari/537.36","WebKit","Chrome","107.0.0.0","Windows","10.0","[0]","","67","4",""
"3710","You drop a bowling ball on an egg <br> T&uacute tiras una bola de boliche a un huevo","{""Q0"":4}","trial","1316","survey-likert","50","401511","0.0-5.0-0.37","19","1","2022-11-29 21:24:48","2df368f4e41f066fd1c82c297b4a1108","181.75.185.239","Mozilla/5.0 (Windows NT 10.0; Win64; x64) AppleWebKit/537.36 (KHTML, like Gecko) Chrome/107.0.0.0 Safari/537.36","WebKit","Chrome","107.0.0.0","Windows","10.0","[0]","","6","4",""
"4631","You see how a horse is chewing hay <br> T&uacute ves como un caballo est&aacute masticando el heno","{""Q0"":4}","trial","1316","survey-likert","51","406145","0.0-5.0-0.38","19","1","2022-11-29 21:24:48","2df368f4e41f066fd1c82c297b4a1108","181.75.185.239","Mozilla/5.0 (Windows NT 10.0; Win64; x64) AppleWebKit/537.36 (KHTML, like Gecko) Chrome/107.0.0.0 Safari/537.36","WebKit","Chrome","107.0.0.0","Windows","10.0","[0]","","55","4",""
"7429","You drop a bowling ball on a piece of sushi <br> T&uacute tiras una bola de boliche a un pedazo de sushi","{""Q0"":3}","trial","1316","survey-likert","52","413577","0.0-5.0-0.39","19","1","2022-11-29 21:24:48","2df368f4e41f066fd1c82c297b4a1108","181.75.185.239","Mozilla/5.0 (Windows NT 10.0; Win64; x64) AppleWebKit/537.36 (KHTML, like Gecko) Chrome/107.0.0.0 Safari/537.36","WebKit","Chrome","107.0.0.0","Windows","10.0","[0]","","21","3",""
"6991","You drop a bowling ball on an egg flan <br> T&uacute tiras una bola de boliche a un flan","{""Q0"":2}","trial","1316","survey-likert","53","420570","0.0-5.0-0.40","19","1","2022-11-29 21:24:48","2df368f4e41f066fd1c82c297b4a1108","181.75.185.239","Mozilla/5.0 (Windows NT 10.0; Win64; x64) AppleWebKit/537.36 (KHTML, like Gecko) Chrome/107.0.0.0 Safari/537.36","WebKit","Chrome","107.0.0.0","Windows","10.0","[0]","","7","2",""
"3121","You see how a dentist is drinking a can of cola <br> T&uacute ves como un dentista est&aacute bebiendo una lata de cola","{""Q0"":4}","trial","1316","survey-likert","54","423694","0.0-5.0-0.41","19","1","2022-11-29 21:24:48","2df368f4e41f066fd1c82c297b4a1108","181.75.185.239","Mozilla/5.0 (Windows NT 10.0; Win64; x64) AppleWebKit/537.36 (KHTML, like Gecko) Chrome/107.0.0.0 Safari/537.36","WebKit","Chrome","107.0.0.0","Windows","10.0","[0]","","47","4",""
"3258","You drop a bowling ball on a mirror <br> T&uacute tiras una bola de boliche a un espejo","{""Q0"":4}","trial","1316","survey-likert","55","426954","0.0-5.0-0.42","19","1","2022-11-29 21:24:48","2df368f4e41f066fd1c82c297b4a1108","181.75.185.239","Mozilla/5.0 (Windows NT 10.0; Win64; x64) AppleWebKit/537.36 (KHTML, like Gecko) Chrome/107.0.0.0 Safari/537.36","WebKit","Chrome","107.0.0.0","Windows","10.0","[0]","","15","4",""
"5031","You drop a bowling ball on a piece of cake <br> T&uacute tiras una bola de boliche a un trozo de pastel","{""Q0"":4}","trial","1316","survey-likert","56","431988","0.0-5.0-0.43","19","1","2022-11-29 21:24:48","2df368f4e41f066fd1c82c297b4a1108","181.75.185.239","Mozilla/5.0 (Windows NT 10.0; Win64; x64) AppleWebKit/537.36 (KHTML, like Gecko) Chrome/107.0.0.0 Safari/537.36","WebKit","Chrome","107.0.0.0","Windows","10.0","[0]","","2","4",""
"5510","You drop a bowling ball on a cracker <br> T&uacute tiras una bola de boliche a una galleta","{""Q0"":4}","trial","1316","survey-likert","57","437501","0.0-5.0-0.44","19","1","2022-11-29 21:24:48","2df368f4e41f066fd1c82c297b4a1108","181.75.185.239","Mozilla/5.0 (Windows NT 10.0; Win64; x64) AppleWebKit/537.36 (KHTML, like Gecko) Chrome/107.0.0.0 Safari/537.36","WebKit","Chrome","107.0.0.0","Windows","10.0","[0]","","4","4",""
"3265","You see how an owl is sitting on the branch <br> T&uacute ves como un b&uacuteho est&aacute reposando en una rama","{""Q0"":4}","trial","1316","survey-likert","58","440768","0.0-5.0-0.45","19","1","2022-11-29 21:24:48","2df368f4e41f066fd1c82c297b4a1108","181.75.185.239","Mozilla/5.0 (Windows NT 10.0; Win64; x64) AppleWebKit/537.36 (KHTML, like Gecko) Chrome/107.0.0.0 Safari/537.36","WebKit","Chrome","107.0.0.0","Windows","10.0","[0]","","69","4",""
"4390","You drop a bowling ball on a tile <br> T&uacute tiras una bola de boliche a una baldosa","{""Q0"":4}","trial","1316","survey-likert","59","445160","0.0-5.0-0.46","19","1","2022-11-29 21:24:48","2df368f4e41f066fd1c82c297b4a1108","181.75.185.239","Mozilla/5.0 (Windows NT 10.0; Win64; x64) AppleWebKit/537.36 (KHTML, like Gecko) Chrome/107.0.0.0 Safari/537.36","WebKit","Chrome","107.0.0.0","Windows","10.0","[0]","","22","4",""
"8636","You see how a man is shaving his beard <br> T&uacute ves como un hombre se est&aacute afeitando la barba","{""Q0"":4}","trial","1316","survey-likert","60","453799","0.0-5.0-0.47","19","1","2022-11-29 21:24:48","2df368f4e41f066fd1c82c297b4a1108","181.75.185.239","Mozilla/5.0 (Windows NT 10.0; Win64; x64) AppleWebKit/537.36 (KHTML, like Gecko) Chrome/107.0.0.0 Safari/537.36","WebKit","Chrome","107.0.0.0","Windows","10.0","[0]","","43","4",""
"3660","You see how a puppy is playing with a ball <br> T&uacute ves como un cachorro est&aacute jugando con una pelota","{""Q0"":4}","trial","1316","survey-likert","61","457461","0.0-5.0-0.48","19","1","2022-11-29 21:24:48","2df368f4e41f066fd1c82c297b4a1108","181.75.185.239","Mozilla/5.0 (Windows NT 10.0; Win64; x64) AppleWebKit/537.36 (KHTML, like Gecko) Chrome/107.0.0.0 Safari/537.36","WebKit","Chrome","107.0.0.0","Windows","10.0","[0]","","34","4",""
"2672","You drop a bowling ball on a chocolate ice-cream <br> T&uacute tiras una bola de boliche a un helado de chocolate","{""Q0"":4}","trial","1316","survey-likert","62","460135","0.0-5.0-0.49","19","1","2022-11-29 21:24:48","2df368f4e41f066fd1c82c297b4a1108","181.75.185.239","Mozilla/5.0 (Windows NT 10.0; Win64; x64) AppleWebKit/537.36 (KHTML, like Gecko) Chrome/107.0.0.0 Safari/537.36","WebKit","Chrome","107.0.0.0","Windows","10.0","[0]","","11","4",""
"3394","You drop a ring on the newspaper <br> T&uacute tiras un anillo al peri&oacutedico","{""Q0"":4}","trial","1316","survey-likert","63","463531","0.0-5.0-0.50","19","1","2022-11-29 21:24:48","2df368f4e41f066fd1c82c297b4a1108","181.75.185.239","Mozilla/5.0 (Windows NT 10.0; Win64; x64) AppleWebKit/537.36 (KHTML, like Gecko) Chrome/107.0.0.0 Safari/537.36","WebKit","Chrome","107.0.0.0","Windows","10.0","[0]","","41","4",""
"14761","You see how a president is writing in the notebook <br> T&uacute ves como un presidente est&aacute escribiendo en la libreta","{""Q0"":0}","trial","1316","survey-likert","64","478295","0.0-5.0-0.51","19","1","2022-11-29 21:24:48","2df368f4e41f066fd1c82c297b4a1108","181.75.185.239","Mozilla/5.0 (Windows NT 10.0; Win64; x64) AppleWebKit/537.36 (KHTML, like Gecko) Chrome/107.0.0.0 Safari/537.36","WebKit","Chrome","107.0.0.0","Windows","10.0","[0]","","63","0",""
"15533","You see how a president is writing in the notebook <br> T&uacute ves como un presidente est&aacute escribiendo en la libreta","{""Q0"":""tu ves como un presidente escribe en el comptuador portatil""}","low_rate","1316","survey-text","65","493831","0.0-5.0-1.51-0.51","19","1","2022-11-29 21:24:48","2df368f4e41f066fd1c82c297b4a1108","181.75.185.239","Mozilla/5.0 (Windows NT 10.0; Win64; x64) AppleWebKit/537.36 (KHTML, like Gecko) Chrome/107.0.0.0 Safari/537.36","WebKit","Chrome","107.0.0.0","Windows","10.0","","","63","",""
"3561","You see how a kitten is playing in the sandbox <br> T&uacute ves como un gatito est&aacute jugando en la caja de arena","{""Q0"":4}","trial","1316","survey-likert","66","497394","0.0-5.0-0.52","19","1","2022-11-29 21:24:48","2df368f4e41f066fd1c82c297b4a1108","181.75.185.239","Mozilla/5.0 (Windows NT 10.0; Win64; x64) AppleWebKit/537.36 (KHTML, like Gecko) Chrome/107.0.0.0 Safari/537.36","WebKit","Chrome","107.0.0.0","Windows","10.0","[0]","","52","4",""
"2857","You drop a towel on the TV <br> T&uacute tiras una toalla a la televisi&oacuten","{""Q0"":4}","trial","1316","survey-likert","67","500253","0.0-5.0-0.53","19","1","2022-11-29 21:24:48","2df368f4e41f066fd1c82c297b4a1108","181.75.185.239","Mozilla/5.0 (Windows NT 10.0; Win64; x64) AppleWebKit/537.36 (KHTML, like Gecko) Chrome/107.0.0.0 Safari/537.36","WebKit","Chrome","107.0.0.0","Windows","10.0","[0]","","53","4",""
"15940","You drop a bowling ball on a blackberry <br> T&uacute tiras una bola de boliche a una mora","{""Q0"":2}","trial","1316","survey-likert","68","516196","0.0-5.0-0.54","19","1","2022-11-29 21:24:48","2df368f4e41f066fd1c82c297b4a1108","181.75.185.239","Mozilla/5.0 (Windows NT 10.0; Win64; x64) AppleWebKit/537.36 (KHTML, like Gecko) Chrome/107.0.0.0 Safari/537.36","WebKit","Chrome","107.0.0.0","Windows","10.0","[0]","","8","2",""
"5010","You drop a cabbage on the table <br> T&uacute tiras una col a la mesa","{""Q0"":4}","trial","1316","survey-likert","69","521209","0.0-5.0-0.55","19","1","2022-11-29 21:24:48","2df368f4e41f066fd1c82c297b4a1108","181.75.185.239","Mozilla/5.0 (Windows NT 10.0; Win64; x64) AppleWebKit/537.36 (KHTML, like Gecko) Chrome/107.0.0.0 Safari/537.36","WebKit","Chrome","107.0.0.0","Windows","10.0","[0]","","35","4",""
"2822","You see how a mouse is eating cheese <br> T&uacute ves como el rat&oacuten est&aacute comiendo queso","{""Q0"":4}","trial","1316","survey-likert","70","524033","0.0-5.0-0.56","19","1","2022-11-29 21:24:48","2df368f4e41f066fd1c82c297b4a1108","181.75.185.239","Mozilla/5.0 (Windows NT 10.0; Win64; x64) AppleWebKit/537.36 (KHTML, like Gecko) Chrome/107.0.0.0 Safari/537.36","WebKit","Chrome","107.0.0.0","Windows","10.0","[0]","","56","4",""
"2440","You drop a bowling ball on a strawberry <br> T&uacute tiras una bola de boliche a una fresa","{""Q0"":4}","trial","1316","survey-likert","71","526476","0.0-5.0-0.57","19","1","2022-11-29 21:24:48","2df368f4e41f066fd1c82c297b4a1108","181.75.185.239","Mozilla/5.0 (Windows NT 10.0; Win64; x64) AppleWebKit/537.36 (KHTML, like Gecko) Chrome/107.0.0.0 Safari/537.36","WebKit","Chrome","107.0.0.0","Windows","10.0","[0]","","20","4",""
"3367","You see how a giraffe is playing with a zebra <br> T&uacute ves como una jirafa est&aacute jugando con una cebra","{""Q0"":4}","trial","1316","survey-likert","72","529845","0.0-5.0-0.58","19","1","2022-11-29 21:24:48","2df368f4e41f066fd1c82c297b4a1108","181.75.185.239","Mozilla/5.0 (Windows NT 10.0; Win64; x64) AppleWebKit/537.36 (KHTML, like Gecko) Chrome/107.0.0.0 Safari/537.36","WebKit","Chrome","107.0.0.0","Windows","10.0","[0]","","65","4",""
"2957","You see how a cat is drinking water from a bowl <br> T&uacute ves como un gato est&aacute bebiendo agua de un cuenco","{""Q0"":4}","trial","1316","survey-likert","73","532804","0.0-5.0-0.59","19","1","2022-11-29 21:24:48","2df368f4e41f066fd1c82c297b4a1108","181.75.185.239","Mozilla/5.0 (Windows NT 10.0; Win64; x64) AppleWebKit/537.36 (KHTML, like Gecko) Chrome/107.0.0.0 Safari/537.36","WebKit","Chrome","107.0.0.0","Windows","10.0","[0]","","28","4",""
"4359","You see how a postman is driving a car <br> T&uacute ves como un cartero est&aacute conduciendo un coche","{""Q0"":4}","trial","1316","survey-likert","74","537166","0.0-5.0-0.60","19","1","2022-11-29 21:24:48","2df368f4e41f066fd1c82c297b4a1108","181.75.185.239","Mozilla/5.0 (Windows NT 10.0; Win64; x64) AppleWebKit/537.36 (KHTML, like Gecko) Chrome/107.0.0.0 Safari/537.36","WebKit","Chrome","107.0.0.0","Windows","10.0","[0]","","32","4",""
"3562","You drop a bowling ball on a light bulb <br> T&uacute tiras una bola de boliche a una bombilla","{""Q0"":4}","trial","1316","survey-likert","75","540730","0.0-5.0-0.61","19","1","2022-11-29 21:24:48","2df368f4e41f066fd1c82c297b4a1108","181.75.185.239","Mozilla/5.0 (Windows NT 10.0; Win64; x64) AppleWebKit/537.36 (KHTML, like Gecko) Chrome/107.0.0.0 Safari/537.36","WebKit","Chrome","107.0.0.0","Windows","10.0","[0]","","14","4",""
"3380","You drop a thermometer on the box <br> T&uacute tiras un term&oacutemetro a la caja","{""Q0"":4}","trial","1316","survey-likert","76","544113","0.0-5.0-0.62","19","1","2022-11-29 21:24:48","2df368f4e41f066fd1c82c297b4a1108","181.75.185.239","Mozilla/5.0 (Windows NT 10.0; Win64; x64) AppleWebKit/537.36 (KHTML, like Gecko) Chrome/107.0.0.0 Safari/537.36","WebKit","Chrome","107.0.0.0","Windows","10.0","[0]","","70","4",""
"2550","You see how a zebra is playing with a horse <br> T&uacute ves como una cebra est&aacute jugando con un caballo","{""Q0"":4}","trial","1316","survey-likert","77","546666","0.0-5.0-0.63","19","1","2022-11-29 21:24:48","2df368f4e41f066fd1c82c297b4a1108","181.75.185.239","Mozilla/5.0 (Windows NT 10.0; Win64; x64) AppleWebKit/537.36 (KHTML, like Gecko) Chrome/107.0.0.0 Safari/537.36","WebKit","Chrome","107.0.0.0","Windows","10.0","[0]","","66","4",""
"4565","You see how an astronaut is putting on a space suit <br> T&uacute ves como un astronauta se est&aacute poniendo su traje espacial","{""Q0"":4}","trial","1316","survey-likert","78","551234","0.0-5.0-0.64","19","1","2022-11-29 21:24:48","2df368f4e41f066fd1c82c297b4a1108","181.75.185.239","Mozilla/5.0 (Windows NT 10.0; Win64; x64) AppleWebKit/537.36 (KHTML, like Gecko) Chrome/107.0.0.0 Safari/537.36","WebKit","Chrome","107.0.0.0","Windows","10.0","[0]","","33","4",""
"4088","You drop a watch on the laptop <br> T&uacute tiras un reloj al port&aacutetil","{""Q0"":4}","trial","1316","survey-likert","79","555325","0.0-5.0-0.65","19","1","2022-11-29 21:24:48","2df368f4e41f066fd1c82c297b4a1108","181.75.185.239","Mozilla/5.0 (Windows NT 10.0; Win64; x64) AppleWebKit/537.36 (KHTML, like Gecko) Chrome/107.0.0.0 Safari/537.36","WebKit","Chrome","107.0.0.0","Windows","10.0","[0]","","37","4",""
"6467","You see how a police officer is talking on the phone <br> T&uacute ves como un polic&iacutea est&aacute hablando por el tel&eacutefono","{""Q0"":4}","trial","1316","survey-likert","80","561795","0.0-5.0-0.66","19","1","2022-11-29 21:24:48","2df368f4e41f066fd1c82c297b4a1108","181.75.185.239","Mozilla/5.0 (Windows NT 10.0; Win64; x64) AppleWebKit/537.36 (KHTML, like Gecko) Chrome/107.0.0.0 Safari/537.36","WebKit","Chrome","107.0.0.0","Windows","10.0","[0]","","62","4",""
"3569","You see how a student is writing on a board <br> T&uacute ves como un estudiante est&aacute escribiendo en la pizarra","{""Q0"":4}","trial","1316","survey-likert","81","565367","0.0-5.0-0.67","19","1","2022-11-29 21:24:48","2df368f4e41f066fd1c82c297b4a1108","181.75.185.239","Mozilla/5.0 (Windows NT 10.0; Win64; x64) AppleWebKit/537.36 (KHTML, like Gecko) Chrome/107.0.0.0 Safari/537.36","WebKit","Chrome","107.0.0.0","Windows","10.0","[0]","","50","4",""
"2620","You see how a boy is peeling a banana <br> T&uacute ves como un ni&ntildeo est&aacute pelando una banana","{""Q0"":4}","trial","1316","survey-likert","82","567989","0.0-5.0-0.68","19","1","2022-11-29 21:24:48","2df368f4e41f066fd1c82c297b4a1108","181.75.185.239","Mozilla/5.0 (Windows NT 10.0; Win64; x64) AppleWebKit/537.36 (KHTML, like Gecko) Chrome/107.0.0.0 Safari/537.36","WebKit","Chrome","107.0.0.0","Windows","10.0","[0]","","30","4",""
"3379","You drop a bowling ball on a donut <br> T&uacute tiras una bola de boliche a una rosquilla","{""Q0"":4}","trial","1316","survey-likert","83","571371","0.0-5.0-0.69","19","1","2022-11-29 21:24:48","2df368f4e41f066fd1c82c297b4a1108","181.75.185.239","Mozilla/5.0 (Windows NT 10.0; Win64; x64) AppleWebKit/537.36 (KHTML, like Gecko) Chrome/107.0.0.0 Safari/537.36","WebKit","Chrome","107.0.0.0","Windows","10.0","[0]","","17","4",""
"2431","You drop a fork on the plate <br> T&uacute tiras un tenedor al plato","{""Q0"":4}","trial","1316","survey-likert","84","573805","0.0-5.0-0.70","19","1","2022-11-29 21:24:48","2df368f4e41f066fd1c82c297b4a1108","181.75.185.239","Mozilla/5.0 (Windows NT 10.0; Win64; x64) AppleWebKit/537.36 (KHTML, like Gecko) Chrome/107.0.0.0 Safari/537.36","WebKit","Chrome","107.0.0.0","Windows","10.0","[0]","","26","4",""
"3164","You see how a woman is taking money out of a wallet <br> T&uacute ves como una mujer est&aacute sacando dinero de su billetera","{""Q0"":4}","trial","1316","survey-likert","85","576971","0.0-5.0-0.71","19","1","2022-11-29 21:24:48","2df368f4e41f066fd1c82c297b4a1108","181.75.185.239","Mozilla/5.0 (Windows NT 10.0; Win64; x64) AppleWebKit/537.36 (KHTML, like Gecko) Chrome/107.0.0.0 Safari/537.36","WebKit","Chrome","107.0.0.0","Windows","10.0","[0]","","44","4",""
"4017","
    <p style=""font-size:20px;""> You have completed the experiment portion! </p>
    <p style=""font-size:20px;""> Before you are done, we would like you to answer some basic demographic questions. </p>
    <p style=""font-size:20px;""> Note that your answers to these questions will not affect your compensation/credit. </p>
    <p style=""font-size:20px;""> Click the button below to continue.</p>
    ","0","demo","1316","html-button-response","86","580992","0.0-6.0","19","1","2022-11-29 21:24:48","2df368f4e41f066fd1c82c297b4a1108","181.75.185.239","Mozilla/5.0 (Windows NT 10.0; Win64; x64) AppleWebKit/537.36 (KHTML, like Gecko) Chrome/107.0.0.0 Safari/537.36","WebKit","Chrome","107.0.0.0","Windows","10.0","","","","",""
"21360","","{""Age"":""32"",""Gender"":""male"",""Education"":""17""}","demo","1316","survey-text","87","602354","0.0-7.0-0.0","19","1","2022-11-29 21:24:48","2df368f4e41f066fd1c82c297b4a1108","181.75.185.239","Mozilla/5.0 (Windows NT 10.0; Win64; x64) AppleWebKit/537.36 (KHTML, like Gecko) Chrome/107.0.0.0 Safari/537.36","WebKit","Chrome","107.0.0.0","Windows","10.0","","","","",""
"12318","","{""Race"":[""Other""]}","demo","1316","survey-multi-select","88","614676","0.0-7.0-1.0","19","1","2022-11-29 21:24:48","2df368f4e41f066fd1c82c297b4a1108","181.75.185.239","Mozilla/5.0 (Windows NT 10.0; Win64; x64) AppleWebKit/537.36 (KHTML, like Gecko) Chrome/107.0.0.0 Safari/537.36","WebKit","Chrome","107.0.0.0","Windows","10.0","[0]","","","",""
"10520","","{""Latino"":""Yes"",""Alert"":""Evening""}","demo","1316","survey-multi-choice","89","625199","0.0-7.0-2.0","19","1","2022-11-29 21:24:48","2df368f4e41f066fd1c82c297b4a1108","181.75.185.239","Mozilla/5.0 (Windows NT 10.0; Win64; x64) AppleWebKit/537.36 (KHTML, like Gecko) Chrome/107.0.0.0 Safari/537.36","WebKit","Chrome","107.0.0.0","Windows","10.0","[0,1]","","","",""
"6964","","{""Q0"":""""}","demo","1316","survey-text","90","632166","0.0-7.0-3.0","19","1","2022-11-29 21:24:48","2df368f4e41f066fd1c82c297b4a1108","181.75.185.239","Mozilla/5.0 (Windows NT 10.0; Win64; x64) AppleWebKit/537.36 (KHTML, like Gecko) Chrome/107.0.0.0 Safari/537.36","WebKit","Chrome","107.0.0.0","Windows","10.0","","","","",""
"13259","<p>Thank you for participating! </p><strong>Your completion code is: CXEJB7NH. Please copy-paste this code and submit it on Prolific.</strong><p>Click <a href=""https://drive.google.com/file/d/1c70cdHFlc0AaR6RujLWLJwWkv1RbHQJY/view?usp=sharing"" target=""_blank"" rel=""noopener noreferrer"">here</a> to access the debriefing form and know more about our research. <p> Please click the button below to finish the experiment and save your data.</p> <p> IMPORTANT: Please <strong>do not leave this page </strong> without clicking the button below.</p> <p> You may close the tab/window after you click the button below.","0","","","html-button-response","91","645427","0.0-8.0","19","1","2022-11-29 21:24:48","2df368f4e41f066fd1c82c297b4a1108","181.75.185.239","Mozilla/5.0 (Windows NT 10.0; Win64; x64) AppleWebKit/537.36 (KHTML, like Gecko) Chrome/107.0.0.0 Safari/537.36","WebKit","Chrome","107.0.0.0","Windows","10.0","","","","",""
