"rt","stimulus","response","typeoftrial","subject","trial_type","trial_index","time_elapsed","internal_node_id","run_id","condition","recorded_at","source_code_version","ip","user_agent","device","browser","browser_version","platform","platform_version","question_order","practice_rating","sentence_num","rating","Experiment"
"15162","
        <p style=""font-size:20px;""> Welcome! Thank you for your interest in our study. </p>
        <p style=""font-size:20px;""> This study is being conducted by researchers at Bowdoin College.</p>
        <p style=""font-size:20px;""> In this experiment, you will be asked to rate the accuracy of English and Spanish translations.</p>
        <p style=""font-size:20px;""> The entire experiment should not last more than 20 minutes. You will be paid $3 USD for your participation. </p>
        <p style=""font-size:20px;""> Please click <a href = ""https://drive.google.com/file/d/1L92a02eEKCpaAEipmqDcBCDR7rsarqFE/view?usp=sharing"" target = ""_blank"">here</a> to read the full consent form. </p>
        <p style=""font-size:20px;""> If you agree to participate, please click the button below to continue to experiment instructions.</p>
        ","0","consent","39035","html-button-response","0","15170","0.0-0.0","56","1","2022-11-29 21:26:42","2df368f4e41f066fd1c82c297b4a1108","189.167.12.41","Mozilla/5.0 (Windows NT 6.3; Win64; x64) AppleWebKit/537.36 (KHTML, like Gecko) Chrome/107.0.0.0 Safari/537.36","WebKit","Chrome","107.0.0.0","Windows","6.3","","","","",""
"5318","","{""ID"":""613c26f7960541b930b654d7""}","ID","39035","survey-text","1","20503","0.0-1.0","56","1","2022-11-29 21:26:42","2df368f4e41f066fd1c82c297b4a1108","189.167.12.41","Mozilla/5.0 (Windows NT 6.3; Win64; x64) AppleWebKit/537.36 (KHTML, like Gecko) Chrome/107.0.0.0 Safari/537.36","WebKit","Chrome","107.0.0.0","Windows","6.3","","","","",""
"22844","
        <p style=""font-size:20px;""> You are about to begin the practice test. </p>
        <p style=""font-size:20px;""> On each trial, you will see a sentence in English and its corresponding Spanish translation. </p>
        <p style=""font-size:20px;""> You will rate the accuracy of the translation on a scale from ""Not at all accurate"" to ""Very accurate."" </p>
        <p style=""font-size:20px;""> If you rate the translation as ""Somewhat innaccurate"" or ""Not at all accurate,"" you will be asked to provide your own translation or a reason why the translation is inaccurate. </p>
        <p style=""font-size:20px;""> Click the button below to continue to the practice session.</p>","0","instructions","39035","html-button-response","2","43350","0.0-2.0","56","1","2022-11-29 21:26:42","2df368f4e41f066fd1c82c297b4a1108","189.167.12.41","Mozilla/5.0 (Windows NT 6.3; Win64; x64) AppleWebKit/537.36 (KHTML, like Gecko) Chrome/107.0.0.0 Safari/537.36","WebKit","Chrome","107.0.0.0","Windows","6.3","","","","",""
"33179","You drop a bowling ball on a mircrowave <br> T&uacute tiras una bola de boliche a un horno","{""Q0"":1}","practice","39035","survey-likert","3","76535","0.0-3.0-0.0","56","1","2022-11-29 21:26:42","2df368f4e41f066fd1c82c297b4a1108","189.167.12.41","Mozilla/5.0 (Windows NT 6.3; Win64; x64) AppleWebKit/537.36 (KHTML, like Gecko) Chrome/107.0.0.0 Safari/537.36","WebKit","Chrome","107.0.0.0","Windows","6.3","[0]","1","","",""
"15654","You drop a bowling ball on a mircrowave <br> T&uacute tiras una bola de boliche a un horno","{""Q0"":""Tú tiras una bola de boliche en el microondas ""}","practice_low_rate","39035","survey-text","4","92207","0.0-3.0-1.0-0.0","56","1","2022-11-29 21:26:42","2df368f4e41f066fd1c82c297b4a1108","189.167.12.41","Mozilla/5.0 (Windows NT 6.3; Win64; x64) AppleWebKit/537.36 (KHTML, like Gecko) Chrome/107.0.0.0 Safari/537.36","WebKit","Chrome","107.0.0.0","Windows","6.3","","","6","",""
"14914","You drop a rock on a phone <br> T&uacute tiras una piedra a un tel&eacutefono","{""Q0"":3}","practice","39035","survey-likert","5","107126","0.0-3.0-0.1","56","1","2022-11-29 21:26:42","2df368f4e41f066fd1c82c297b4a1108","189.167.12.41","Mozilla/5.0 (Windows NT 6.3; Win64; x64) AppleWebKit/537.36 (KHTML, like Gecko) Chrome/107.0.0.0 Safari/537.36","WebKit","Chrome","107.0.0.0","Windows","6.3","[0]","3","","",""
"24990","You see how a tiger is playing with a goose <br> T&uacute ves como un le&oacuten come una pizza","{""Q0"":1}","practice","39035","survey-likert","6","132127","0.0-3.0-0.2","56","1","2022-11-29 21:26:42","2df368f4e41f066fd1c82c297b4a1108","189.167.12.41","Mozilla/5.0 (Windows NT 6.3; Win64; x64) AppleWebKit/537.36 (KHTML, like Gecko) Chrome/107.0.0.0 Safari/537.36","WebKit","Chrome","107.0.0.0","Windows","6.3","[0]","1","","",""
"18948","You see how a tiger is playing with a goose <br> T&uacute ves como un le&oacuten come una pizza","{""Q0"":""Tú ves como un león juega con un ganso ""}","practice_low_rate","39035","survey-text","7","151087","0.0-3.0-1.2-0.2","56","1","2022-11-29 21:26:42","2df368f4e41f066fd1c82c297b4a1108","189.167.12.41","Mozilla/5.0 (Windows NT 6.3; Win64; x64) AppleWebKit/537.36 (KHTML, like Gecko) Chrome/107.0.0.0 Safari/537.36","WebKit","Chrome","107.0.0.0","Windows","6.3","","","5","",""
"19724","You see how a teacher is drawing a picture <br> T&uacute ves como un maestro pinta una foto","{""Q0"":1}","practice","39035","survey-likert","8","170815","0.0-3.0-0.3","56","1","2022-11-29 21:26:42","2df368f4e41f066fd1c82c297b4a1108","189.167.12.41","Mozilla/5.0 (Windows NT 6.3; Win64; x64) AppleWebKit/537.36 (KHTML, like Gecko) Chrome/107.0.0.0 Safari/537.36","WebKit","Chrome","107.0.0.0","Windows","6.3","[0]","1","","",""
"12580","You see how a teacher is drawing a picture <br> T&uacute ves como un maestro pinta una foto","{""Q0"":""Tú ves como un profesor dibuja una foto ""}","practice_low_rate","39035","survey-text","9","183406","0.0-3.0-1.3-0.3","56","1","2022-11-29 21:26:42","2df368f4e41f066fd1c82c297b4a1108","189.167.12.41","Mozilla/5.0 (Windows NT 6.3; Win64; x64) AppleWebKit/537.36 (KHTML, like Gecko) Chrome/107.0.0.0 Safari/537.36","WebKit","Chrome","107.0.0.0","Windows","6.3","","","4","",""
"7844","You see how an artist is running <br> T&uacute ves como un artista est&aacute corriendo","{""Q0"":3}","practice","39035","survey-likert","10","191255","0.0-3.0-0.4","56","1","2022-11-29 21:26:42","2df368f4e41f066fd1c82c297b4a1108","189.167.12.41","Mozilla/5.0 (Windows NT 6.3; Win64; x64) AppleWebKit/537.36 (KHTML, like Gecko) Chrome/107.0.0.0 Safari/537.36","WebKit","Chrome","107.0.0.0","Windows","6.3","[0]","3","","",""
"6766","You see how a duck is playing with a pumpkin <br> T&uacute ves como un pato est&aacute jugando con una calabaza","{""Q0"":4}","practice","39035","survey-likert","11","198031","0.0-3.0-0.5","56","1","2022-11-29 21:26:42","2df368f4e41f066fd1c82c297b4a1108","189.167.12.41","Mozilla/5.0 (Windows NT 6.3; Win64; x64) AppleWebKit/537.36 (KHTML, like Gecko) Chrome/107.0.0.0 Safari/537.36","WebKit","Chrome","107.0.0.0","Windows","6.3","[0]","4","","",""
"3846","<p style=""font-size:20px;"">You have now completed the practice session! </p>
        <p style=""font-size:20px;"">You will now move on to the main experiment. </p>
        <p style=""font-size:20px;"">Please click the button below to continue. </p>","0","movetoexp","39035","html-button-response","12","201886","0.0-4.0","56","1","2022-11-29 21:26:42","2df368f4e41f066fd1c82c297b4a1108","189.167.12.41","Mozilla/5.0 (Windows NT 6.3; Win64; x64) AppleWebKit/537.36 (KHTML, like Gecko) Chrome/107.0.0.0 Safari/537.36","WebKit","Chrome","107.0.0.0","Windows","6.3","","","","",""
"9974","You see how a mouse is eating cheese <br> T&uacute ves como el rat&oacuten est&aacute comiendo queso","{""Q0"":3}","trial","39035","survey-likert","13","211863","0.0-5.0-0.0","56","1","2022-11-29 21:26:42","2df368f4e41f066fd1c82c297b4a1108","189.167.12.41","Mozilla/5.0 (Windows NT 6.3; Win64; x64) AppleWebKit/537.36 (KHTML, like Gecko) Chrome/107.0.0.0 Safari/537.36","WebKit","Chrome","107.0.0.0","Windows","6.3","[0]","","56","3",""
"7381","You see how a donkey is drinking water <br> T&uacute ves como un burro est&aacute bebiendo agua","{""Q0"":4}","trial","39035","survey-likert","14","219254","0.0-5.0-0.1","56","1","2022-11-29 21:26:42","2df368f4e41f066fd1c82c297b4a1108","189.167.12.41","Mozilla/5.0 (Windows NT 6.3; Win64; x64) AppleWebKit/537.36 (KHTML, like Gecko) Chrome/107.0.0.0 Safari/537.36","WebKit","Chrome","107.0.0.0","Windows","6.3","[0]","","45","4",""
"18623","You see how an owl is sitting on the branch <br> T&uacute ves como un b&uacuteho est&aacute reposando en una rama","{""Q0"":3}","trial","39035","survey-likert","15","237887","0.0-5.0-0.2","56","1","2022-11-29 21:26:42","2df368f4e41f066fd1c82c297b4a1108","189.167.12.41","Mozilla/5.0 (Windows NT 6.3; Win64; x64) AppleWebKit/537.36 (KHTML, like Gecko) Chrome/107.0.0.0 Safari/537.36","WebKit","Chrome","107.0.0.0","Windows","6.3","[0]","","69","3",""
"13526","You see how a parrot is eating an apple <br> T&uacute ves como un loro est&aacute comiendo una manzana","{""Q0"":3}","trial","39035","survey-likert","16","251423","0.0-5.0-0.3","56","1","2022-11-29 21:26:42","2df368f4e41f066fd1c82c297b4a1108","189.167.12.41","Mozilla/5.0 (Windows NT 6.3; Win64; x64) AppleWebKit/537.36 (KHTML, like Gecko) Chrome/107.0.0.0 Safari/537.36","WebKit","Chrome","107.0.0.0","Windows","6.3","[0]","","58","3",""
"20687","You drop a bowling ball on a mirror <br> T&uacute tiras una bola de boliche a un espejo","{""Q0"":1}","trial","39035","survey-likert","17","272119","0.0-5.0-0.4","56","1","2022-11-29 21:26:42","2df368f4e41f066fd1c82c297b4a1108","189.167.12.41","Mozilla/5.0 (Windows NT 6.3; Win64; x64) AppleWebKit/537.36 (KHTML, like Gecko) Chrome/107.0.0.0 Safari/537.36","WebKit","Chrome","107.0.0.0","Windows","6.3","[0]","","15","1",""
"12762","You drop a bowling ball on a mirror <br> T&uacute tiras una bola de boliche a un espejo","{""Q0"":""Tú avientas una bola de boliche a un espejo ""}","low_rate","39035","survey-text","18","284895","0.0-5.0-1.4-0.4","56","1","2022-11-29 21:26:42","2df368f4e41f066fd1c82c297b4a1108","189.167.12.41","Mozilla/5.0 (Windows NT 6.3; Win64; x64) AppleWebKit/537.36 (KHTML, like Gecko) Chrome/107.0.0.0 Safari/537.36","WebKit","Chrome","107.0.0.0","Windows","6.3","","","15","",""
"16734","You see how a cook is taking a knife <br> T&uacute ves como un cocinero est&aacute agarrando un cuchillo","{""Q0"":1}","trial","39035","survey-likert","19","301633","0.0-5.0-0.5","56","1","2022-11-29 21:26:42","2df368f4e41f066fd1c82c297b4a1108","189.167.12.41","Mozilla/5.0 (Windows NT 6.3; Win64; x64) AppleWebKit/537.36 (KHTML, like Gecko) Chrome/107.0.0.0 Safari/537.36","WebKit","Chrome","107.0.0.0","Windows","6.3","[0]","","71","1",""
"18398","You see how a cook is taking a knife <br> T&uacute ves como un cocinero est&aacute agarrando un cuchillo","{""Q0"":""Tú ves como un cocinero sostiene un cuchillo ""}","low_rate","39035","survey-text","20","320048","0.0-5.0-1.5-0.5","56","1","2022-11-29 21:26:42","2df368f4e41f066fd1c82c297b4a1108","189.167.12.41","Mozilla/5.0 (Windows NT 6.3; Win64; x64) AppleWebKit/537.36 (KHTML, like Gecko) Chrome/107.0.0.0 Safari/537.36","WebKit","Chrome","107.0.0.0","Windows","6.3","","","71","",""
"8531","You see how a boy is peeling a banana <br> T&uacute ves como un ni&ntildeo est&aacute pelando una banana","{""Q0"":3}","trial","39035","survey-likert","21","328583","0.0-5.0-0.6","56","1","2022-11-29 21:26:42","2df368f4e41f066fd1c82c297b4a1108","189.167.12.41","Mozilla/5.0 (Windows NT 6.3; Win64; x64) AppleWebKit/537.36 (KHTML, like Gecko) Chrome/107.0.0.0 Safari/537.36","WebKit","Chrome","107.0.0.0","Windows","6.3","[0]","","30","3",""
"63638","You see how a pilot is reading a book <br> T&uacute ves como un piloto est&aacute leyendo un libro","{""Q0"":3}","trial","39035","survey-likert","22","392231","0.0-5.0-0.7","56","1","2022-11-29 21:26:42","2df368f4e41f066fd1c82c297b4a1108","189.167.12.41","Mozilla/5.0 (Windows NT 6.3; Win64; x64) AppleWebKit/537.36 (KHTML, like Gecko) Chrome/107.0.0.0 Safari/537.36","WebKit","Chrome","107.0.0.0","Windows","6.3","[0]","","61","3",""
"19263","You drop a cushion on the magazine <br> T&uacute tiras un coj&iacuten a la revista","{""Q0"":1}","trial","39035","survey-likert","23","411503","0.0-5.0-0.8","56","1","2022-11-29 21:26:42","2df368f4e41f066fd1c82c297b4a1108","189.167.12.41","Mozilla/5.0 (Windows NT 6.3; Win64; x64) AppleWebKit/537.36 (KHTML, like Gecko) Chrome/107.0.0.0 Safari/537.36","WebKit","Chrome","107.0.0.0","Windows","6.3","[0]","","38","1",""
"13980","You drop a cushion on the magazine <br> T&uacute tiras un coj&iacuten a la revista","{""Q0"":""Tú tiras un cojín en la revista ""}","low_rate","39035","survey-text","24","425496","0.0-5.0-1.8-0.8","56","1","2022-11-29 21:26:42","2df368f4e41f066fd1c82c297b4a1108","189.167.12.41","Mozilla/5.0 (Windows NT 6.3; Win64; x64) AppleWebKit/537.36 (KHTML, like Gecko) Chrome/107.0.0.0 Safari/537.36","WebKit","Chrome","107.0.0.0","Windows","6.3","","","38","",""
"23851","You drop a needle on the mouse pad <br> T&uacute tiras una aguja a la alfombrilla para el rat&oacuten","{""Q0"":2}","trial","39035","survey-likert","25","449350","0.0-5.0-0.9","56","1","2022-11-29 21:26:42","2df368f4e41f066fd1c82c297b4a1108","189.167.12.41","Mozilla/5.0 (Windows NT 6.3; Win64; x64) AppleWebKit/537.36 (KHTML, like Gecko) Chrome/107.0.0.0 Safari/537.36","WebKit","Chrome","107.0.0.0","Windows","6.3","[0]","","42","2",""
"11207","You drop a bowling ball on a chocolate ice-cream <br> T&uacute tiras una bola de boliche a un helado de chocolate","{""Q0"":3}","trial","39035","survey-likert","26","460567","0.0-5.0-0.10","56","1","2022-11-29 21:26:42","2df368f4e41f066fd1c82c297b4a1108","189.167.12.41","Mozilla/5.0 (Windows NT 6.3; Win64; x64) AppleWebKit/537.36 (KHTML, like Gecko) Chrome/107.0.0.0 Safari/537.36","WebKit","Chrome","107.0.0.0","Windows","6.3","[0]","","11","3",""
"16855","You drop a watch on the laptop <br> T&uacute tiras un reloj al port&aacutetil","{""Q0"":1}","trial","39035","survey-likert","27","477431","0.0-5.0-0.11","56","1","2022-11-29 21:26:42","2df368f4e41f066fd1c82c297b4a1108","189.167.12.41","Mozilla/5.0 (Windows NT 6.3; Win64; x64) AppleWebKit/537.36 (KHTML, like Gecko) Chrome/107.0.0.0 Safari/537.36","WebKit","Chrome","107.0.0.0","Windows","6.3","[0]","","37","1",""
"19387","You drop a watch on the laptop <br> T&uacute tiras un reloj al port&aacutetil","{""Q0"":""Tú tiras un reloj en la laptop ""}","low_rate","39035","survey-text","28","496831","0.0-5.0-1.11-0.11","56","1","2022-11-29 21:26:42","2df368f4e41f066fd1c82c297b4a1108","189.167.12.41","Mozilla/5.0 (Windows NT 6.3; Win64; x64) AppleWebKit/537.36 (KHTML, like Gecko) Chrome/107.0.0.0 Safari/537.36","WebKit","Chrome","107.0.0.0","Windows","6.3","","","37","",""
"14059","You drop a fork on the plate <br> T&uacute tiras un tenedor al plato","{""Q0"":1}","trial","39035","survey-likert","29","510895","0.0-5.0-0.12","56","1","2022-11-29 21:26:42","2df368f4e41f066fd1c82c297b4a1108","189.167.12.41","Mozilla/5.0 (Windows NT 6.3; Win64; x64) AppleWebKit/537.36 (KHTML, like Gecko) Chrome/107.0.0.0 Safari/537.36","WebKit","Chrome","107.0.0.0","Windows","6.3","[0]","","26","1",""
"9684","You drop a fork on the plate <br> T&uacute tiras un tenedor al plato","{""Q0"":""Tú tiras un tenedor en el plato ""}","low_rate","39035","survey-text","30","520592","0.0-5.0-1.12-0.12","56","1","2022-11-29 21:26:42","2df368f4e41f066fd1c82c297b4a1108","189.167.12.41","Mozilla/5.0 (Windows NT 6.3; Win64; x64) AppleWebKit/537.36 (KHTML, like Gecko) Chrome/107.0.0.0 Safari/537.36","WebKit","Chrome","107.0.0.0","Windows","6.3","","","26","",""
"18962","You drop a ring on the newspaper <br> T&uacute tiras un anillo al peri&oacutedico","{""Q0"":1}","trial","39035","survey-likert","31","539559","0.0-5.0-0.13","56","1","2022-11-29 21:26:42","2df368f4e41f066fd1c82c297b4a1108","189.167.12.41","Mozilla/5.0 (Windows NT 6.3; Win64; x64) AppleWebKit/537.36 (KHTML, like Gecko) Chrome/107.0.0.0 Safari/537.36","WebKit","Chrome","107.0.0.0","Windows","6.3","[0]","","41","1",""
"9068","You drop a ring on the newspaper <br> T&uacute tiras un anillo al peri&oacutedico","{""Q0"":""Tú tiras un anillo en el períodico ""}","low_rate","39035","survey-text","32","548639","0.0-5.0-1.13-0.13","56","1","2022-11-29 21:26:42","2df368f4e41f066fd1c82c297b4a1108","189.167.12.41","Mozilla/5.0 (Windows NT 6.3; Win64; x64) AppleWebKit/537.36 (KHTML, like Gecko) Chrome/107.0.0.0 Safari/537.36","WebKit","Chrome","107.0.0.0","Windows","6.3","","","41","",""
"11787","You see how a nurse is taking a syringe <br> T&uacute ves como una enfermera est&aacute agarrando una jeringuilla","{""Q0"":3}","trial","39035","survey-likert","33","560431","0.0-5.0-0.14","56","1","2022-11-29 21:26:42","2df368f4e41f066fd1c82c297b4a1108","189.167.12.41","Mozilla/5.0 (Windows NT 6.3; Win64; x64) AppleWebKit/537.36 (KHTML, like Gecko) Chrome/107.0.0.0 Safari/537.36","WebKit","Chrome","107.0.0.0","Windows","6.3","[0]","","48","3",""
"7662","You drop a towel on the TV <br> T&uacute tiras una toalla a la televisi&oacuten","{""Q0"":1}","trial","39035","survey-likert","34","568104","0.0-5.0-0.15","56","1","2022-11-29 21:26:42","2df368f4e41f066fd1c82c297b4a1108","189.167.12.41","Mozilla/5.0 (Windows NT 6.3; Win64; x64) AppleWebKit/537.36 (KHTML, like Gecko) Chrome/107.0.0.0 Safari/537.36","WebKit","Chrome","107.0.0.0","Windows","6.3","[0]","","53","1",""
"9304","You drop a towel on the TV <br> T&uacute tiras una toalla a la televisi&oacuten","{""Q0"":""Tú tiras una toalla en la televisión ""}","low_rate","39035","survey-text","35","577423","0.0-5.0-1.15-0.15","56","1","2022-11-29 21:26:42","2df368f4e41f066fd1c82c297b4a1108","189.167.12.41","Mozilla/5.0 (Windows NT 6.3; Win64; x64) AppleWebKit/537.36 (KHTML, like Gecko) Chrome/107.0.0.0 Safari/537.36","WebKit","Chrome","107.0.0.0","Windows","6.3","","","53","",""
"7997","You see how a photographer is taking a photo of a lion <br> T&uacute ves como un fot&oacutegrafo est&aacute tomando una foto de un le&oacuten","{""Q0"":4}","trial","39035","survey-likert","36","585424","0.0-5.0-0.16","56","1","2022-11-29 21:26:42","2df368f4e41f066fd1c82c297b4a1108","189.167.12.41","Mozilla/5.0 (Windows NT 6.3; Win64; x64) AppleWebKit/537.36 (KHTML, like Gecko) Chrome/107.0.0.0 Safari/537.36","WebKit","Chrome","107.0.0.0","Windows","6.3","[0]","","72","4",""
"12335","You drop a bowling ball on a strawberry <br> T&uacute tiras una bola de boliche a una fresa","{""Q0"":1}","trial","39035","survey-likert","37","597768","0.0-5.0-0.17","56","1","2022-11-29 21:26:42","2df368f4e41f066fd1c82c297b4a1108","189.167.12.41","Mozilla/5.0 (Windows NT 6.3; Win64; x64) AppleWebKit/537.36 (KHTML, like Gecko) Chrome/107.0.0.0 Safari/537.36","WebKit","Chrome","107.0.0.0","Windows","6.3","[0]","","20","1",""
"14685","You drop a bowling ball on a strawberry <br> T&uacute tiras una bola de boliche a una fresa","{""Q0"":""Tú tiras una bola de boliche en una fresa ""}","low_rate","39035","survey-text","38","612465","0.0-5.0-1.17-0.17","56","1","2022-11-29 21:26:42","2df368f4e41f066fd1c82c297b4a1108","189.167.12.41","Mozilla/5.0 (Windows NT 6.3; Win64; x64) AppleWebKit/537.36 (KHTML, like Gecko) Chrome/107.0.0.0 Safari/537.36","WebKit","Chrome","107.0.0.0","Windows","6.3","","","20","",""
"15477","You drop a bowling ball on a blackberry <br> T&uacute tiras una bola de boliche a una mora","{""Q0"":3}","trial","39035","survey-likert","39","627948","0.0-5.0-0.18","56","1","2022-11-29 21:26:42","2df368f4e41f066fd1c82c297b4a1108","189.167.12.41","Mozilla/5.0 (Windows NT 6.3; Win64; x64) AppleWebKit/537.36 (KHTML, like Gecko) Chrome/107.0.0.0 Safari/537.36","WebKit","Chrome","107.0.0.0","Windows","6.3","[0]","","8","3",""
"12264","You see how a thief is stealing a wallet <br> T&uacute ves como un ladr&oacuten est&aacute robando una billetera","{""Q0"":4}","trial","39035","survey-likert","40","640222","0.0-5.0-0.19","56","1","2022-11-29 21:26:42","2df368f4e41f066fd1c82c297b4a1108","189.167.12.41","Mozilla/5.0 (Windows NT 6.3; Win64; x64) AppleWebKit/537.36 (KHTML, like Gecko) Chrome/107.0.0.0 Safari/537.36","WebKit","Chrome","107.0.0.0","Windows","6.3","[0]","","68","4",""
"8155","You drop a bowling ball on a ceramic plate <br> T&uacute tiras una bola de boliche a un plato de cer&aacutemica","{""Q0"":3}","trial","39035","survey-likert","41","648387","0.0-5.0-0.20","56","1","2022-11-29 21:26:42","2df368f4e41f066fd1c82c297b4a1108","189.167.12.41","Mozilla/5.0 (Windows NT 6.3; Win64; x64) AppleWebKit/537.36 (KHTML, like Gecko) Chrome/107.0.0.0 Safari/537.36","WebKit","Chrome","107.0.0.0","Windows","6.3","[0]","","19","3",""
"5731","You see how an elephant is eating a watermelon <br> T&uacute ves como un elefante est&aacute comiendo una sand&iacutea","{""Q0"":4}","trial","39035","survey-likert","42","654129","0.0-5.0-0.21","56","1","2022-11-29 21:26:42","2df368f4e41f066fd1c82c297b4a1108","189.167.12.41","Mozilla/5.0 (Windows NT 6.3; Win64; x64) AppleWebKit/537.36 (KHTML, like Gecko) Chrome/107.0.0.0 Safari/537.36","WebKit","Chrome","107.0.0.0","Windows","6.3","[0]","","31","4",""
"19845","You see how a cat is drinking water from a bowl <br> T&uacute ves como un gato est&aacute bebiendo agua de un cuenco","{""Q0"":1}","trial","39035","survey-likert","43","673987","0.0-5.0-0.22","56","1","2022-11-29 21:26:42","2df368f4e41f066fd1c82c297b4a1108","189.167.12.41","Mozilla/5.0 (Windows NT 6.3; Win64; x64) AppleWebKit/537.36 (KHTML, like Gecko) Chrome/107.0.0.0 Safari/537.36","WebKit","Chrome","107.0.0.0","Windows","6.3","[0]","","28","1",""
"16279","You see how a cat is drinking water from a bowl <br> T&uacute ves como un gato est&aacute bebiendo agua de un cuenco","{""Q0"":""Tú ves como un gato está bebiendo agua de un tazón""}","low_rate","39035","survey-text","44","690278","0.0-5.0-1.22-0.22","56","1","2022-11-29 21:26:42","2df368f4e41f066fd1c82c297b4a1108","189.167.12.41","Mozilla/5.0 (Windows NT 6.3; Win64; x64) AppleWebKit/537.36 (KHTML, like Gecko) Chrome/107.0.0.0 Safari/537.36","WebKit","Chrome","107.0.0.0","Windows","6.3","","","28","",""
"10809","You drop a bowling ball on a hat <br> T&uacute tiras una bola de boliche a una gorra","{""Q0"":1}","trial","39035","survey-likert","45","701091","0.0-5.0-0.23","56","1","2022-11-29 21:26:42","2df368f4e41f066fd1c82c297b4a1108","189.167.12.41","Mozilla/5.0 (Windows NT 6.3; Win64; x64) AppleWebKit/537.36 (KHTML, like Gecko) Chrome/107.0.0.0 Safari/537.36","WebKit","Chrome","107.0.0.0","Windows","6.3","[0]","","10","1",""
"14165","You drop a bowling ball on a hat <br> T&uacute tiras una bola de boliche a una gorra","{""Q0"":""Tú avientas una bola de boliche en una gorra""}","low_rate","39035","survey-text","46","715268","0.0-5.0-1.23-0.23","56","1","2022-11-29 21:26:42","2df368f4e41f066fd1c82c297b4a1108","189.167.12.41","Mozilla/5.0 (Windows NT 6.3; Win64; x64) AppleWebKit/537.36 (KHTML, like Gecko) Chrome/107.0.0.0 Safari/537.36","WebKit","Chrome","107.0.0.0","Windows","6.3","","","10","",""
"6530","You drop a bowling ball on a cracker <br> T&uacute tiras una bola de boliche a una galleta","{""Q0"":3}","trial","39035","survey-likert","47","721803","0.0-5.0-0.24","56","1","2022-11-29 21:26:42","2df368f4e41f066fd1c82c297b4a1108","189.167.12.41","Mozilla/5.0 (Windows NT 6.3; Win64; x64) AppleWebKit/537.36 (KHTML, like Gecko) Chrome/107.0.0.0 Safari/537.36","WebKit","Chrome","107.0.0.0","Windows","6.3","[0]","","4","3",""
"9676","You drop a bowling ball on a piece of cake <br> T&uacute tiras una bola de boliche a un trozo de pastel","{""Q0"":3}","trial","39035","survey-likert","48","731490","0.0-5.0-0.25","56","1","2022-11-29 21:26:42","2df368f4e41f066fd1c82c297b4a1108","189.167.12.41","Mozilla/5.0 (Windows NT 6.3; Win64; x64) AppleWebKit/537.36 (KHTML, like Gecko) Chrome/107.0.0.0 Safari/537.36","WebKit","Chrome","107.0.0.0","Windows","6.3","[0]","","2","3",""
"8490","You drop a remote on the rug <br> T&uacute tiras un control remoto a la alfombra","{""Q0"":1}","trial","39035","survey-likert","49","739992","0.0-5.0-0.26","56","1","2022-11-29 21:26:42","2df368f4e41f066fd1c82c297b4a1108","189.167.12.41","Mozilla/5.0 (Windows NT 6.3; Win64; x64) AppleWebKit/537.36 (KHTML, like Gecko) Chrome/107.0.0.0 Safari/537.36","WebKit","Chrome","107.0.0.0","Windows","6.3","[0]","","39","1",""
"11813","You drop a remote on the rug <br> T&uacute tiras un control remoto a la alfombra","{""Q0"":""Tú dejas caer un control remoto en la alfombra""}","low_rate","39035","survey-text","50","751818","0.0-5.0-1.26-0.26","56","1","2022-11-29 21:26:42","2df368f4e41f066fd1c82c297b4a1108","189.167.12.41","Mozilla/5.0 (Windows NT 6.3; Win64; x64) AppleWebKit/537.36 (KHTML, like Gecko) Chrome/107.0.0.0 Safari/537.36","WebKit","Chrome","107.0.0.0","Windows","6.3","","","39","",""
"8866","You see how a zebra is playing with a horse <br> T&uacute ves como una cebra est&aacute jugando con un caballo","{""Q0"":3}","trial","39035","survey-likert","51","760690","0.0-5.0-0.27","56","1","2022-11-29 21:26:42","2df368f4e41f066fd1c82c297b4a1108","189.167.12.41","Mozilla/5.0 (Windows NT 6.3; Win64; x64) AppleWebKit/537.36 (KHTML, like Gecko) Chrome/107.0.0.0 Safari/537.36","WebKit","Chrome","107.0.0.0","Windows","6.3","[0]","","66","3",""
"13890","You drop a toothbrush on the sponge <br> T&uacute tiras un cepillo de dientes en la esponja","{""Q0"":3}","trial","39035","survey-likert","52","774591","0.0-5.0-0.28","56","1","2022-11-29 21:26:42","2df368f4e41f066fd1c82c297b4a1108","189.167.12.41","Mozilla/5.0 (Windows NT 6.3; Win64; x64) AppleWebKit/537.36 (KHTML, like Gecko) Chrome/107.0.0.0 Safari/537.36","WebKit","Chrome","107.0.0.0","Windows","6.3","[0]","","25","3",""
"7248","You see how a doctor is taking a stethoscope <br> T&uacute ves como un doctor est&aacute agarrando un estetoscopio","{""Q0"":4}","trial","39035","survey-likert","53","781849","0.0-5.0-0.29","56","1","2022-11-29 21:26:42","2df368f4e41f066fd1c82c297b4a1108","189.167.12.41","Mozilla/5.0 (Windows NT 6.3; Win64; x64) AppleWebKit/537.36 (KHTML, like Gecko) Chrome/107.0.0.0 Safari/537.36","WebKit","Chrome","107.0.0.0","Windows","6.3","[0]","","49","4",""
"8968","You see how an old man is hammering a nail <br> T&uacute ves como un hombre anciano est&aacute martillando un clavo","{""Q0"":1}","trial","39035","survey-likert","54","790827","0.0-5.0-0.30","56","1","2022-11-29 21:26:42","2df368f4e41f066fd1c82c297b4a1108","189.167.12.41","Mozilla/5.0 (Windows NT 6.3; Win64; x64) AppleWebKit/537.36 (KHTML, like Gecko) Chrome/107.0.0.0 Safari/537.36","WebKit","Chrome","107.0.0.0","Windows","6.3","[0]","","29","1",""
"14104","You see how an old man is hammering a nail <br> T&uacute ves como un hombre anciano est&aacute martillando un clavo","{""Q0"":""Tú ves como un anciano está clavando un clavo ""}","low_rate","39035","survey-text","55","804944","0.0-5.0-1.30-0.30","56","1","2022-11-29 21:26:42","2df368f4e41f066fd1c82c297b4a1108","189.167.12.41","Mozilla/5.0 (Windows NT 6.3; Win64; x64) AppleWebKit/537.36 (KHTML, like Gecko) Chrome/107.0.0.0 Safari/537.36","WebKit","Chrome","107.0.0.0","Windows","6.3","","","29","",""
"8667","You drop a bowling ball on a porcelain figure <br> T&uacute tiras una bola de boliche a una figura de porcelana","{""Q0"":3}","trial","39035","survey-likert","56","813617","0.0-5.0-0.31","56","1","2022-11-29 21:26:42","2df368f4e41f066fd1c82c297b4a1108","189.167.12.41","Mozilla/5.0 (Windows NT 6.3; Win64; x64) AppleWebKit/537.36 (KHTML, like Gecko) Chrome/107.0.0.0 Safari/537.36","WebKit","Chrome","107.0.0.0","Windows","6.3","[0]","","1","3",""
"8245","You see how a kitten is playing in the sandbox <br> T&uacute ves como un gatito est&aacute jugando en la caja de arena","{""Q0"":4}","trial","39035","survey-likert","57","821873","0.0-5.0-0.32","56","1","2022-11-29 21:26:42","2df368f4e41f066fd1c82c297b4a1108","189.167.12.41","Mozilla/5.0 (Windows NT 6.3; Win64; x64) AppleWebKit/537.36 (KHTML, like Gecko) Chrome/107.0.0.0 Safari/537.36","WebKit","Chrome","107.0.0.0","Windows","6.3","[0]","","52","4",""
"8032","You drop a bowling ball on a chocolate muffin <br> T&uacute tiras una bola de boliche a una magdalena de chocolate","{""Q0"":3}","trial","39035","survey-likert","58","829915","0.0-5.0-0.33","56","1","2022-11-29 21:26:42","2df368f4e41f066fd1c82c297b4a1108","189.167.12.41","Mozilla/5.0 (Windows NT 6.3; Win64; x64) AppleWebKit/537.36 (KHTML, like Gecko) Chrome/107.0.0.0 Safari/537.36","WebKit","Chrome","107.0.0.0","Windows","6.3","[0]","","16","3",""
"9999","You see how a postman is driving a car <br> T&uacute ves como un cartero est&aacute conduciendo un coche","{""Q0"":3}","trial","39035","survey-likert","59","839925","0.0-5.0-0.34","56","1","2022-11-29 21:26:42","2df368f4e41f066fd1c82c297b4a1108","189.167.12.41","Mozilla/5.0 (Windows NT 6.3; Win64; x64) AppleWebKit/537.36 (KHTML, like Gecko) Chrome/107.0.0.0 Safari/537.36","WebKit","Chrome","107.0.0.0","Windows","6.3","[0]","","32","3",""
"4227","You see how a man is playing with a cat <br> T&uacute ves como un hombre est&aacute jugando con un gato","{""Q0"":4}","trial","39035","survey-likert","60","844163","0.0-5.0-0.35","56","1","2022-11-29 21:26:42","2df368f4e41f066fd1c82c297b4a1108","189.167.12.41","Mozilla/5.0 (Windows NT 6.3; Win64; x64) AppleWebKit/537.36 (KHTML, like Gecko) Chrome/107.0.0.0 Safari/537.36","WebKit","Chrome","107.0.0.0","Windows","6.3","[0]","","67","4",""
"13926","You drop a bowling ball on a paper cup <br> T&uacute tiras una bola de boliche a un vaso de papel","{""Q0"":3}","trial","39035","survey-likert","61","858100","0.0-5.0-0.36","56","1","2022-11-29 21:26:42","2df368f4e41f066fd1c82c297b4a1108","189.167.12.41","Mozilla/5.0 (Windows NT 6.3; Win64; x64) AppleWebKit/537.36 (KHTML, like Gecko) Chrome/107.0.0.0 Safari/537.36","WebKit","Chrome","107.0.0.0","Windows","6.3","[0]","","24","3",""
"100354","You see how a dentist is drinking a can of cola <br> T&uacute ves como un dentista est&aacute bebiendo una lata de cola","{""Q0"":3}","trial","39035","survey-likert","62","958466","0.0-5.0-0.37","56","1","2022-11-29 21:26:42","2df368f4e41f066fd1c82c297b4a1108","189.167.12.41","Mozilla/5.0 (Windows NT 6.3; Win64; x64) AppleWebKit/537.36 (KHTML, like Gecko) Chrome/107.0.0.0 Safari/537.36","WebKit","Chrome","107.0.0.0","Windows","6.3","[0]","","47","3",""
"4385","You drop a bowling ball on a light bulb <br> T&uacute tiras una bola de boliche a una bombilla","{""Q0"":1}","trial","39035","survey-likert","63","962865","0.0-5.0-0.38","56","1","2022-11-29 21:26:42","2df368f4e41f066fd1c82c297b4a1108","189.167.12.41","Mozilla/5.0 (Windows NT 6.3; Win64; x64) AppleWebKit/537.36 (KHTML, like Gecko) Chrome/107.0.0.0 Safari/537.36","WebKit","Chrome","107.0.0.0","Windows","6.3","[0]","","14","1",""
"13587","You drop a bowling ball on a light bulb <br> T&uacute tiras una bola de boliche a una bombilla","{""Q0"":""Tú avientas una bola de boliche en un foco""}","low_rate","39035","survey-text","64","976467","0.0-5.0-1.38-0.38","56","1","2022-11-29 21:26:42","2df368f4e41f066fd1c82c297b4a1108","189.167.12.41","Mozilla/5.0 (Windows NT 6.3; Win64; x64) AppleWebKit/537.36 (KHTML, like Gecko) Chrome/107.0.0.0 Safari/537.36","WebKit","Chrome","107.0.0.0","Windows","6.3","","","14","",""
"14498","You drop a bowling ball on an empty can of beer <br> T&uacute tiras una bola de boliche a una lata de cerveza vac&iacutea","{""Q0"":3}","trial","39035","survey-likert","65","990973","0.0-5.0-0.39","56","1","2022-11-29 21:26:42","2df368f4e41f066fd1c82c297b4a1108","189.167.12.41","Mozilla/5.0 (Windows NT 6.3; Win64; x64) AppleWebKit/537.36 (KHTML, like Gecko) Chrome/107.0.0.0 Safari/537.36","WebKit","Chrome","107.0.0.0","Windows","6.3","[0]","","3","3",""
"14883","You drop a keyboard on the bed <br> T&uacute tiras un teclado a la cama","{""Q0"":1}","trial","39035","survey-likert","66","1005868","0.0-5.0-0.40","56","1","2022-11-29 21:26:42","2df368f4e41f066fd1c82c297b4a1108","189.167.12.41","Mozilla/5.0 (Windows NT 6.3; Win64; x64) AppleWebKit/537.36 (KHTML, like Gecko) Chrome/107.0.0.0 Safari/537.36","WebKit","Chrome","107.0.0.0","Windows","6.3","[0]","","36","1",""
"10445","You drop a keyboard on the bed <br> T&uacute tiras un teclado a la cama","{""Q0"":""Tú avientas un teclado a la cama""}","low_rate","39035","survey-text","67","1016326","0.0-5.0-1.40-0.40","56","1","2022-11-29 21:26:42","2df368f4e41f066fd1c82c297b4a1108","189.167.12.41","Mozilla/5.0 (Windows NT 6.3; Win64; x64) AppleWebKit/537.36 (KHTML, like Gecko) Chrome/107.0.0.0 Safari/537.36","WebKit","Chrome","107.0.0.0","Windows","6.3","","","36","",""
"16805","You see how a woman is paying with a debit card <br> T&uacute ves como una mujer est&aacute pagando con una tarjeta de d&eacutebito","{""Q0"":3}","trial","39035","survey-likert","68","1033138","0.0-5.0-0.41","56","1","2022-11-29 21:26:42","2df368f4e41f066fd1c82c297b4a1108","189.167.12.41","Mozilla/5.0 (Windows NT 6.3; Win64; x64) AppleWebKit/537.36 (KHTML, like Gecko) Chrome/107.0.0.0 Safari/537.36","WebKit","Chrome","107.0.0.0","Windows","6.3","[0]","","64","3",""
"5333","You drop a bowling ball on a wine glass <br> T&uacute tiras una bola de boliche a una copa de vino","{""Q0"":3}","trial","39035","survey-likert","69","1038482","0.0-5.0-0.42","56","1","2022-11-29 21:26:42","2df368f4e41f066fd1c82c297b4a1108","189.167.12.41","Mozilla/5.0 (Windows NT 6.3; Win64; x64) AppleWebKit/537.36 (KHTML, like Gecko) Chrome/107.0.0.0 Safari/537.36","WebKit","Chrome","107.0.0.0","Windows","6.3","[0]","","5","3",""
"7007","You drop a bowling ball on a piece of sushi <br> T&uacute tiras una bola de boliche a un pedazo de sushi","{""Q0"":2}","trial","39035","survey-likert","70","1045499","0.0-5.0-0.43","56","1","2022-11-29 21:26:42","2df368f4e41f066fd1c82c297b4a1108","189.167.12.41","Mozilla/5.0 (Windows NT 6.3; Win64; x64) AppleWebKit/537.36 (KHTML, like Gecko) Chrome/107.0.0.0 Safari/537.36","WebKit","Chrome","107.0.0.0","Windows","6.3","[0]","","21","2",""
"14674","You see how a panda is resting on a tree <br> T&uacute ves como un panda est&aacute descansando en un &aacuterbol","{""Q0"":3}","trial","39035","survey-likert","71","1060184","0.0-5.0-0.44","56","1","2022-11-29 21:26:42","2df368f4e41f066fd1c82c297b4a1108","189.167.12.41","Mozilla/5.0 (Windows NT 6.3; Win64; x64) AppleWebKit/537.36 (KHTML, like Gecko) Chrome/107.0.0.0 Safari/537.36","WebKit","Chrome","107.0.0.0","Windows","6.3","[0]","","57","3",""
"12072","You drop a bowling ball on an iPhone <br> T&uacute tiras una bola de boliche a un iPhone","{""Q0"":2}","trial","39035","survey-likert","72","1072269","0.0-5.0-0.45","56","1","2022-11-29 21:26:42","2df368f4e41f066fd1c82c297b4a1108","189.167.12.41","Mozilla/5.0 (Windows NT 6.3; Win64; x64) AppleWebKit/537.36 (KHTML, like Gecko) Chrome/107.0.0.0 Safari/537.36","WebKit","Chrome","107.0.0.0","Windows","6.3","[0]","","13","2",""
"4758","You drop a bowling ball on glasses <br> T&uacute tiras una bola de boliche a unas gafas","{""Q0"":3}","trial","39035","survey-likert","73","1077040","0.0-5.0-0.46","56","1","2022-11-29 21:26:42","2df368f4e41f066fd1c82c297b4a1108","189.167.12.41","Mozilla/5.0 (Windows NT 6.3; Win64; x64) AppleWebKit/537.36 (KHTML, like Gecko) Chrome/107.0.0.0 Safari/537.36","WebKit","Chrome","107.0.0.0","Windows","6.3","[0]","","9","3",""
"11012","You drop a bowling ball on a rice cake <br> T&uacute tiras una bola de boliche a una tortita de arroz","{""Q0"":3}","trial","39035","survey-likert","74","1088063","0.0-5.0-0.47","56","1","2022-11-29 21:26:42","2df368f4e41f066fd1c82c297b4a1108","189.167.12.41","Mozilla/5.0 (Windows NT 6.3; Win64; x64) AppleWebKit/537.36 (KHTML, like Gecko) Chrome/107.0.0.0 Safari/537.36","WebKit","Chrome","107.0.0.0","Windows","6.3","[0]","","18","3",""
"10819","You see how a police officer is talking on the phone <br> T&uacute ves como un polic&iacutea est&aacute hablando por el tel&eacutefono","{""Q0"":4}","trial","39035","survey-likert","75","1098896","0.0-5.0-0.48","56","1","2022-11-29 21:26:42","2df368f4e41f066fd1c82c297b4a1108","189.167.12.41","Mozilla/5.0 (Windows NT 6.3; Win64; x64) AppleWebKit/537.36 (KHTML, like Gecko) Chrome/107.0.0.0 Safari/537.36","WebKit","Chrome","107.0.0.0","Windows","6.3","[0]","","62","4",""
"21075","You see how a president is writing in the notebook <br> T&uacute ves como un presidente est&aacute escribiendo en la libreta","{""Q0"":1}","trial","39035","survey-likert","76","1119983","0.0-5.0-0.49","56","1","2022-11-29 21:26:42","2df368f4e41f066fd1c82c297b4a1108","189.167.12.41","Mozilla/5.0 (Windows NT 6.3; Win64; x64) AppleWebKit/537.36 (KHTML, like Gecko) Chrome/107.0.0.0 Safari/537.36","WebKit","Chrome","107.0.0.0","Windows","6.3","[0]","","63","1",""
"12928","You see how a president is writing in the notebook <br> T&uacute ves como un presidente est&aacute escribiendo en la libreta","{""Q0"":""Tú ves como el presidente escribe en una libreta""}","low_rate","39035","survey-text","77","1132927","0.0-5.0-1.49-0.49","56","1","2022-11-29 21:26:42","2df368f4e41f066fd1c82c297b4a1108","189.167.12.41","Mozilla/5.0 (Windows NT 6.3; Win64; x64) AppleWebKit/537.36 (KHTML, like Gecko) Chrome/107.0.0.0 Safari/537.36","WebKit","Chrome","107.0.0.0","Windows","6.3","","","63","",""
"8446","You drop a cabbage on the table <br> T&uacute tiras una col a la mesa","{""Q0"":1}","trial","39035","survey-likert","78","1141381","0.0-5.0-0.50","56","1","2022-11-29 21:26:42","2df368f4e41f066fd1c82c297b4a1108","189.167.12.41","Mozilla/5.0 (Windows NT 6.3; Win64; x64) AppleWebKit/537.36 (KHTML, like Gecko) Chrome/107.0.0.0 Safari/537.36","WebKit","Chrome","107.0.0.0","Windows","6.3","[0]","","35","1",""
"8835","You drop a cabbage on the table <br> T&uacute tiras una col a la mesa","{""Q0"":""Tú pones una col en la mesa""}","low_rate","39035","survey-text","79","1150232","0.0-5.0-1.50-0.50","56","1","2022-11-29 21:26:42","2df368f4e41f066fd1c82c297b4a1108","189.167.12.41","Mozilla/5.0 (Windows NT 6.3; Win64; x64) AppleWebKit/537.36 (KHTML, like Gecko) Chrome/107.0.0.0 Safari/537.36","WebKit","Chrome","107.0.0.0","Windows","6.3","","","35","",""
"7065","You see how a giraffe is playing with a zebra <br> T&uacute ves como una jirafa est&aacute jugando con una cebra","{""Q0"":4}","trial","39035","survey-likert","80","1157304","0.0-5.0-0.51","56","1","2022-11-29 21:26:42","2df368f4e41f066fd1c82c297b4a1108","189.167.12.41","Mozilla/5.0 (Windows NT 6.3; Win64; x64) AppleWebKit/537.36 (KHTML, like Gecko) Chrome/107.0.0.0 Safari/537.36","WebKit","Chrome","107.0.0.0","Windows","6.3","[0]","","65","4",""
"13889","You see how a horse is chewing hay <br> T&uacute ves como un caballo est&aacute masticando el heno","{""Q0"":1}","trial","39035","survey-likert","81","1171206","0.0-5.0-0.52","56","1","2022-11-29 21:26:42","2df368f4e41f066fd1c82c297b4a1108","189.167.12.41","Mozilla/5.0 (Windows NT 6.3; Win64; x64) AppleWebKit/537.36 (KHTML, like Gecko) Chrome/107.0.0.0 Safari/537.36","WebKit","Chrome","107.0.0.0","Windows","6.3","[0]","","55","1",""
"9074","You see how a horse is chewing hay <br> T&uacute ves como un caballo est&aacute masticando el heno","{""Q0"":""Tú ves como un caballo mastica heno ""}","low_rate","39035","survey-text","82","1180296","0.0-5.0-1.52-0.52","56","1","2022-11-29 21:26:42","2df368f4e41f066fd1c82c297b4a1108","189.167.12.41","Mozilla/5.0 (Windows NT 6.3; Win64; x64) AppleWebKit/537.36 (KHTML, like Gecko) Chrome/107.0.0.0 Safari/537.36","WebKit","Chrome","107.0.0.0","Windows","6.3","","","55","",""
"11314","You drop a bowling ball on a donut <br> T&uacute tiras una bola de boliche a una rosquilla","{""Q0"":1}","trial","39035","survey-likert","83","1191618","0.0-5.0-0.53","56","1","2022-11-29 21:26:42","2df368f4e41f066fd1c82c297b4a1108","189.167.12.41","Mozilla/5.0 (Windows NT 6.3; Win64; x64) AppleWebKit/537.36 (KHTML, like Gecko) Chrome/107.0.0.0 Safari/537.36","WebKit","Chrome","107.0.0.0","Windows","6.3","[0]","","17","1",""
"11017","You drop a bowling ball on a donut <br> T&uacute tiras una bola de boliche a una rosquilla","{""Q0"":""Tú tiras una bola de boliche a una dona""}","low_rate","39035","survey-text","84","1202651","0.0-5.0-1.53-0.53","56","1","2022-11-29 21:26:42","2df368f4e41f066fd1c82c297b4a1108","189.167.12.41","Mozilla/5.0 (Windows NT 6.3; Win64; x64) AppleWebKit/537.36 (KHTML, like Gecko) Chrome/107.0.0.0 Safari/537.36","WebKit","Chrome","107.0.0.0","Windows","6.3","","","17","",""
"9072","You drop a bowling ball on an egg flan <br> T&uacute tiras una bola de boliche a un flan","{""Q0"":3}","trial","39035","survey-likert","85","1211732","0.0-5.0-0.54","56","1","2022-11-29 21:26:42","2df368f4e41f066fd1c82c297b4a1108","189.167.12.41","Mozilla/5.0 (Windows NT 6.3; Win64; x64) AppleWebKit/537.36 (KHTML, like Gecko) Chrome/107.0.0.0 Safari/537.36","WebKit","Chrome","107.0.0.0","Windows","6.3","[0]","","7","3",""
"6578","You see how a musician is playing a guitar <br> T&uacute ves como un m&uacutesico est&aacute tocando la guitarra","{""Q0"":4}","trial","39035","survey-likert","86","1218324","0.0-5.0-0.55","56","1","2022-11-29 21:26:42","2df368f4e41f066fd1c82c297b4a1108","189.167.12.41","Mozilla/5.0 (Windows NT 6.3; Win64; x64) AppleWebKit/537.36 (KHTML, like Gecko) Chrome/107.0.0.0 Safari/537.36","WebKit","Chrome","107.0.0.0","Windows","6.3","[0]","","27","4",""
"27916","You see how a student is writing on a board <br> T&uacute ves como un estudiante est&aacute escribiendo en la pizarra","{""Q0"":1}","trial","39035","survey-likert","87","1246253","0.0-5.0-0.56","56","1","2022-11-29 21:26:42","2df368f4e41f066fd1c82c297b4a1108","189.167.12.41","Mozilla/5.0 (Windows NT 6.3; Win64; x64) AppleWebKit/537.36 (KHTML, like Gecko) Chrome/107.0.0.0 Safari/537.36","WebKit","Chrome","107.0.0.0","Windows","6.3","[0]","","50","1",""
"12946","You see how a student is writing on a board <br> T&uacute ves como un estudiante est&aacute escribiendo en la pizarra","{""Q0"":""Tú ves a un estudiante escribiendo en la pizarra""}","low_rate","39035","survey-text","88","1259216","0.0-5.0-1.56-0.56","56","1","2022-11-29 21:26:42","2df368f4e41f066fd1c82c297b4a1108","189.167.12.41","Mozilla/5.0 (Windows NT 6.3; Win64; x64) AppleWebKit/537.36 (KHTML, like Gecko) Chrome/107.0.0.0 Safari/537.36","WebKit","Chrome","107.0.0.0","Windows","6.3","","","50","",""
"19103","You see how a man is boiling potatoes <br> T&uacute ves a un hombre est&aacute hirviendo papas","{""Q0"":1}","trial","39035","survey-likert","89","1278327","0.0-5.0-0.57","56","1","2022-11-29 21:26:42","2df368f4e41f066fd1c82c297b4a1108","189.167.12.41","Mozilla/5.0 (Windows NT 6.3; Win64; x64) AppleWebKit/537.36 (KHTML, like Gecko) Chrome/107.0.0.0 Safari/537.36","WebKit","Chrome","107.0.0.0","Windows","6.3","[0]","","46","1",""
"12301","You see how a man is boiling potatoes <br> T&uacute ves a un hombre est&aacute hirviendo papas","{""Q0"":""Tú ves a un hombre que está hirviendo papas""}","low_rate","39035","survey-text","90","1290643","0.0-5.0-1.57-0.57","56","1","2022-11-29 21:26:42","2df368f4e41f066fd1c82c297b4a1108","189.167.12.41","Mozilla/5.0 (Windows NT 6.3; Win64; x64) AppleWebKit/537.36 (KHTML, like Gecko) Chrome/107.0.0.0 Safari/537.36","WebKit","Chrome","107.0.0.0","Windows","6.3","","","46","",""
"12447","You see how an actress is taking a microphone <br> T&uacute ves como una actriz est&aacute agarrando el micr&oacutefono","{""Q0"":3}","trial","39035","survey-likert","91","1303098","0.0-5.0-0.58","56","1","2022-11-29 21:26:42","2df368f4e41f066fd1c82c297b4a1108","189.167.12.41","Mozilla/5.0 (Windows NT 6.3; Win64; x64) AppleWebKit/537.36 (KHTML, like Gecko) Chrome/107.0.0.0 Safari/537.36","WebKit","Chrome","107.0.0.0","Windows","6.3","[0]","","51","3",""
"12644","You see how a butterfly is sitting on a flower <br> T&uacute ves como una mariposa est&aacute reposando en una flor","{""Q0"":3}","trial","39035","survey-likert","92","1315756","0.0-5.0-0.59","56","1","2022-11-29 21:26:42","2df368f4e41f066fd1c82c297b4a1108","189.167.12.41","Mozilla/5.0 (Windows NT 6.3; Win64; x64) AppleWebKit/537.36 (KHTML, like Gecko) Chrome/107.0.0.0 Safari/537.36","WebKit","Chrome","107.0.0.0","Windows","6.3","[0]","","59","3",""
"7468","You see how a hairdresser is taking scissors <br> T&uacute ves como una peluquera est&aacute agarrando las tijeras","{""Q0"":3}","trial","39035","survey-likert","93","1323237","0.0-5.0-0.60","56","1","2022-11-29 21:26:42","2df368f4e41f066fd1c82c297b4a1108","189.167.12.41","Mozilla/5.0 (Windows NT 6.3; Win64; x64) AppleWebKit/537.36 (KHTML, like Gecko) Chrome/107.0.0.0 Safari/537.36","WebKit","Chrome","107.0.0.0","Windows","6.3","[0]","","60","3",""
"3613","You drop a bowling ball on a tomato <br> T&uacute tiras una bola de boliche a un tomate","{""Q0"":2}","trial","39035","survey-likert","94","1326863","0.0-5.0-0.61","56","1","2022-11-29 21:26:42","2df368f4e41f066fd1c82c297b4a1108","189.167.12.41","Mozilla/5.0 (Windows NT 6.3; Win64; x64) AppleWebKit/537.36 (KHTML, like Gecko) Chrome/107.0.0.0 Safari/537.36","WebKit","Chrome","107.0.0.0","Windows","6.3","[0]","","23","2",""
"7875","You drop a thermometer on the box <br> T&uacute tiras un term&oacutemetro a la caja","{""Q0"":1}","trial","39035","survey-likert","95","1334751","0.0-5.0-0.62","56","1","2022-11-29 21:26:42","2df368f4e41f066fd1c82c297b4a1108","189.167.12.41","Mozilla/5.0 (Windows NT 6.3; Win64; x64) AppleWebKit/537.36 (KHTML, like Gecko) Chrome/107.0.0.0 Safari/537.36","WebKit","Chrome","107.0.0.0","Windows","6.3","[0]","","70","1",""
"10338","You drop a thermometer on the box <br> T&uacute tiras un term&oacutemetro a la caja","{""Q0"":""Tú pones un termómetro en la caja""}","low_rate","39035","survey-text","96","1345105","0.0-5.0-1.62-0.62","56","1","2022-11-29 21:26:42","2df368f4e41f066fd1c82c297b4a1108","189.167.12.41","Mozilla/5.0 (Windows NT 6.3; Win64; x64) AppleWebKit/537.36 (KHTML, like Gecko) Chrome/107.0.0.0 Safari/537.36","WebKit","Chrome","107.0.0.0","Windows","6.3","","","70","",""
"5058","You drop a bowling ball on an iPAD <br> T&uacute tiras una bola de boliche a un iPad","{""Q0"":2}","trial","39035","survey-likert","97","1350173","0.0-5.0-0.63","56","1","2022-11-29 21:26:42","2df368f4e41f066fd1c82c297b4a1108","189.167.12.41","Mozilla/5.0 (Windows NT 6.3; Win64; x64) AppleWebKit/537.36 (KHTML, like Gecko) Chrome/107.0.0.0 Safari/537.36","WebKit","Chrome","107.0.0.0","Windows","6.3","[0]","","12","2",""
"18541","You see how a man is shaving his beard <br> T&uacute ves como un hombre se est&aacute afeitando la barba","{""Q0"":3}","trial","39035","survey-likert","98","1368728","0.0-5.0-0.64","56","1","2022-11-29 21:26:42","2df368f4e41f066fd1c82c297b4a1108","189.167.12.41","Mozilla/5.0 (Windows NT 6.3; Win64; x64) AppleWebKit/537.36 (KHTML, like Gecko) Chrome/107.0.0.0 Safari/537.36","WebKit","Chrome","107.0.0.0","Windows","6.3","[0]","","43","3",""
"5972","You see how an astronaut is putting on a space suit <br> T&uacute ves como un astronauta se est&aacute poniendo su traje espacial","{""Q0"":4}","trial","39035","survey-likert","99","1374713","0.0-5.0-0.65","56","1","2022-11-29 21:26:42","2df368f4e41f066fd1c82c297b4a1108","189.167.12.41","Mozilla/5.0 (Windows NT 6.3; Win64; x64) AppleWebKit/537.36 (KHTML, like Gecko) Chrome/107.0.0.0 Safari/537.36","WebKit","Chrome","107.0.0.0","Windows","6.3","[0]","","33","4",""
"8805","You drop a pencil on the shoe <br> T&uacute tiras un l&aacutepiz al zapato","{""Q0"":3}","trial","39035","survey-likert","100","1383530","0.0-5.0-0.66","56","1","2022-11-29 21:26:42","2df368f4e41f066fd1c82c297b4a1108","189.167.12.41","Mozilla/5.0 (Windows NT 6.3; Win64; x64) AppleWebKit/537.36 (KHTML, like Gecko) Chrome/107.0.0.0 Safari/537.36","WebKit","Chrome","107.0.0.0","Windows","6.3","[0]","","40","3",""
"8255","You see how a puppy is playing with a ball <br> T&uacute ves como un cachorro est&aacute jugando con una pelota","{""Q0"":4}","trial","39035","survey-likert","101","1391799","0.0-5.0-0.67","56","1","2022-11-29 21:26:42","2df368f4e41f066fd1c82c297b4a1108","189.167.12.41","Mozilla/5.0 (Windows NT 6.3; Win64; x64) AppleWebKit/537.36 (KHTML, like Gecko) Chrome/107.0.0.0 Safari/537.36","WebKit","Chrome","107.0.0.0","Windows","6.3","[0]","","34","4",""
"12163","You see how a woman is taking money out of a wallet <br> T&uacute ves como una mujer est&aacute sacando dinero de su billetera","{""Q0"":1}","trial","39035","survey-likert","102","1403975","0.0-5.0-0.68","56","1","2022-11-29 21:26:42","2df368f4e41f066fd1c82c297b4a1108","189.167.12.41","Mozilla/5.0 (Windows NT 6.3; Win64; x64) AppleWebKit/537.36 (KHTML, like Gecko) Chrome/107.0.0.0 Safari/537.36","WebKit","Chrome","107.0.0.0","Windows","6.3","[0]","","44","1",""
"16347","You see how a woman is taking money out of a wallet <br> T&uacute ves como una mujer est&aacute sacando dinero de su billetera","{""Q0"":""Tú ves como una mujer está tomando dinero de su billetera""}","low_rate","39035","survey-text","103","1420339","0.0-5.0-1.68-0.68","56","1","2022-11-29 21:26:42","2df368f4e41f066fd1c82c297b4a1108","189.167.12.41","Mozilla/5.0 (Windows NT 6.3; Win64; x64) AppleWebKit/537.36 (KHTML, like Gecko) Chrome/107.0.0.0 Safari/537.36","WebKit","Chrome","107.0.0.0","Windows","6.3","","","44","",""
"15276","You see how a teenage girl is playing the piano <br> T&uacute ves como una ni&ntildea adolescente est&aacute tocando el piano","{""Q0"":1}","trial","39035","survey-likert","104","1435624","0.0-5.0-0.69","56","1","2022-11-29 21:26:42","2df368f4e41f066fd1c82c297b4a1108","189.167.12.41","Mozilla/5.0 (Windows NT 6.3; Win64; x64) AppleWebKit/537.36 (KHTML, like Gecko) Chrome/107.0.0.0 Safari/537.36","WebKit","Chrome","107.0.0.0","Windows","6.3","[0]","","54","1",""
"10115","You see how a teenage girl is playing the piano <br> T&uacute ves como una ni&ntildea adolescente est&aacute tocando el piano","{""Q0"":""Tú ves como una adolescente está tocando el piano""}","low_rate","39035","survey-text","105","1445756","0.0-5.0-1.69-0.69","56","1","2022-11-29 21:26:42","2df368f4e41f066fd1c82c297b4a1108","189.167.12.41","Mozilla/5.0 (Windows NT 6.3; Win64; x64) AppleWebKit/537.36 (KHTML, like Gecko) Chrome/107.0.0.0 Safari/537.36","WebKit","Chrome","107.0.0.0","Windows","6.3","","","54","",""
"18136","You drop a bowling ball on a tile <br> T&uacute tiras una bola de boliche a una baldosa","{""Q0"":1}","trial","39035","survey-likert","106","1463902","0.0-5.0-0.70","56","1","2022-11-29 21:26:42","2df368f4e41f066fd1c82c297b4a1108","189.167.12.41","Mozilla/5.0 (Windows NT 6.3; Win64; x64) AppleWebKit/537.36 (KHTML, like Gecko) Chrome/107.0.0.0 Safari/537.36","WebKit","Chrome","107.0.0.0","Windows","6.3","[0]","","22","1",""
"20824","You drop a bowling ball on a tile <br> T&uacute tiras una bola de boliche a una baldosa","{""Q0"":""Tú tiras una bola de boliche en un azulejo ""}","low_rate","39035","survey-text","107","1484742","0.0-5.0-1.70-0.70","56","1","2022-11-29 21:26:42","2df368f4e41f066fd1c82c297b4a1108","189.167.12.41","Mozilla/5.0 (Windows NT 6.3; Win64; x64) AppleWebKit/537.36 (KHTML, like Gecko) Chrome/107.0.0.0 Safari/537.36","WebKit","Chrome","107.0.0.0","Windows","6.3","","","22","",""
"5971","You drop a bowling ball on an egg <br> T&uacute tiras una bola de boliche a un huevo","{""Q0"":3}","trial","39035","survey-likert","108","1490721","0.0-5.0-0.71","56","1","2022-11-29 21:26:42","2df368f4e41f066fd1c82c297b4a1108","189.167.12.41","Mozilla/5.0 (Windows NT 6.3; Win64; x64) AppleWebKit/537.36 (KHTML, like Gecko) Chrome/107.0.0.0 Safari/537.36","WebKit","Chrome","107.0.0.0","Windows","6.3","[0]","","6","3",""
"5842","
    <p style=""font-size:20px;""> You have completed the experiment portion! </p>
    <p style=""font-size:20px;""> Before you are done, we would like you to answer some basic demographic questions. </p>
    <p style=""font-size:20px;""> Note that your answers to these questions will not affect your compensation/credit. </p>
    <p style=""font-size:20px;""> Click the button below to continue.</p>
    ","0","demo","39035","html-button-response","109","1496580","0.0-6.0","56","1","2022-11-29 21:26:42","2df368f4e41f066fd1c82c297b4a1108","189.167.12.41","Mozilla/5.0 (Windows NT 6.3; Win64; x64) AppleWebKit/537.36 (KHTML, like Gecko) Chrome/107.0.0.0 Safari/537.36","WebKit","Chrome","107.0.0.0","Windows","6.3","","","","",""
"31914","","{""Age"":""26"",""Gender"":""female"",""Education"":""11""}","demo","39035","survey-text","110","1528508","0.0-7.0-0.0","56","1","2022-11-29 21:26:42","2df368f4e41f066fd1c82c297b4a1108","189.167.12.41","Mozilla/5.0 (Windows NT 6.3; Win64; x64) AppleWebKit/537.36 (KHTML, like Gecko) Chrome/107.0.0.0 Safari/537.36","WebKit","Chrome","107.0.0.0","Windows","6.3","","","","",""
"9360","","{""Race"":[""Other""]}","demo","39035","survey-multi-select","111","1537889","0.0-7.0-1.0","56","1","2022-11-29 21:26:42","2df368f4e41f066fd1c82c297b4a1108","189.167.12.41","Mozilla/5.0 (Windows NT 6.3; Win64; x64) AppleWebKit/537.36 (KHTML, like Gecko) Chrome/107.0.0.0 Safari/537.36","WebKit","Chrome","107.0.0.0","Windows","6.3","[0]","","","",""
"6911","","{""Latino"":""Yes"",""Alert"":""Morning""}","demo","39035","survey-multi-choice","112","1544817","0.0-7.0-2.0","56","1","2022-11-29 21:26:42","2df368f4e41f066fd1c82c297b4a1108","189.167.12.41","Mozilla/5.0 (Windows NT 6.3; Win64; x64) AppleWebKit/537.36 (KHTML, like Gecko) Chrome/107.0.0.0 Safari/537.36","WebKit","Chrome","107.0.0.0","Windows","6.3","[0,1]","","","",""
"21291","","{""Q0"":""""}","demo","39035","survey-text","113","1566126","0.0-7.0-3.0","56","1","2022-11-29 21:26:42","2df368f4e41f066fd1c82c297b4a1108","189.167.12.41","Mozilla/5.0 (Windows NT 6.3; Win64; x64) AppleWebKit/537.36 (KHTML, like Gecko) Chrome/107.0.0.0 Safari/537.36","WebKit","Chrome","107.0.0.0","Windows","6.3","","","","",""
"20132","<p>Thank you for participating! </p><strong>Your completion code is: CXEJB7NH. Please copy-paste this code and submit it on Prolific.</strong><p>Click <a href=""https://drive.google.com/file/d/1c70cdHFlc0AaR6RujLWLJwWkv1RbHQJY/view?usp=sharing"" target=""_blank"" rel=""noopener noreferrer"">here</a> to access the debriefing form and know more about our research. <p> Please click the button below to finish the experiment and save your data.</p> <p> IMPORTANT: Please <strong>do not leave this page </strong> without clicking the button below.</p> <p> You may close the tab/window after you click the button below.","0","","","html-button-response","114","1586268","0.0-8.0","56","1","2022-11-29 21:26:42","2df368f4e41f066fd1c82c297b4a1108","189.167.12.41","Mozilla/5.0 (Windows NT 6.3; Win64; x64) AppleWebKit/537.36 (KHTML, like Gecko) Chrome/107.0.0.0 Safari/537.36","WebKit","Chrome","107.0.0.0","Windows","6.3","","","","",""
