"rt","stimulus","response","typeoftrial","subject","trial_type","trial_index","time_elapsed","internal_node_id","run_id","condition","recorded_at","source_code_version","ip","user_agent","device","browser","browser_version","platform","platform_version","question_order","practice_rating","sentence_num","rating","Experiment"
"9795","
        <p style=""font-size:20px;""> Welcome! Thank you for your interest in our study. </p>
        <p style=""font-size:20px;""> This study is being conducted by researchers at Bowdoin College.</p>
        <p style=""font-size:20px;""> In this experiment, you will be asked to rate the accuracy of English and Spanish translations.</p>
        <p style=""font-size:20px;""> The entire experiment should not last more than 20 minutes. You will be paid $3 USD for your participation. </p>
        <p style=""font-size:20px;""> Please click <a href = ""https://drive.google.com/file/d/1L92a02eEKCpaAEipmqDcBCDR7rsarqFE/view?usp=sharing"" target = ""_blank"">here</a> to read the full consent form. </p>
        <p style=""font-size:20px;""> If you agree to participate, please click the button below to continue to experiment instructions.</p>
        ","0","consent","45705","html-button-response","0","9799","0.0-0.0","37","1","2022-11-29 21:25:03","2df368f4e41f066fd1c82c297b4a1108","187.193.186.52","Mozilla/5.0 (Windows NT 10.0; Win64; x64) AppleWebKit/537.36 (KHTML, like Gecko) Chrome/107.0.0.0 Safari/537.36","WebKit","Chrome","107.0.0.0","Windows","10.0","","","","",""
"6647","","{""ID"":""61568a59110d8f1cc99558af""}","ID","45705","survey-text","1","16457","0.0-1.0","37","1","2022-11-29 21:25:03","2df368f4e41f066fd1c82c297b4a1108","187.193.186.52","Mozilla/5.0 (Windows NT 10.0; Win64; x64) AppleWebKit/537.36 (KHTML, like Gecko) Chrome/107.0.0.0 Safari/537.36","WebKit","Chrome","107.0.0.0","Windows","10.0","","","","",""
"13764","
        <p style=""font-size:20px;""> You are about to begin the practice test. </p>
        <p style=""font-size:20px;""> On each trial, you will see a sentence in English and its corresponding Spanish translation. </p>
        <p style=""font-size:20px;""> You will rate the accuracy of the translation on a scale from ""Not at all accurate"" to ""Very accurate."" </p>
        <p style=""font-size:20px;""> If you rate the translation as ""Somewhat innaccurate"" or ""Not at all accurate,"" you will be asked to provide your own translation or a reason why the translation is inaccurate. </p>
        <p style=""font-size:20px;""> Click the button below to continue to the practice session.</p>","0","instructions","45705","html-button-response","2","30223","0.0-2.0","37","1","2022-11-29 21:25:03","2df368f4e41f066fd1c82c297b4a1108","187.193.186.52","Mozilla/5.0 (Windows NT 10.0; Win64; x64) AppleWebKit/537.36 (KHTML, like Gecko) Chrome/107.0.0.0 Safari/537.36","WebKit","Chrome","107.0.0.0","Windows","10.0","","","","",""
"10357","You see how a duck is playing with a pumpkin <br> T&uacute ves como un pato est&aacute jugando con una calabaza","{""Q0"":4}","practice","45705","survey-likert","3","40583","0.0-3.0-0.0","37","1","2022-11-29 21:25:03","2df368f4e41f066fd1c82c297b4a1108","187.193.186.52","Mozilla/5.0 (Windows NT 10.0; Win64; x64) AppleWebKit/537.36 (KHTML, like Gecko) Chrome/107.0.0.0 Safari/537.36","WebKit","Chrome","107.0.0.0","Windows","10.0","[0]","4","","",""
"18870","You see how a teacher is drawing a picture <br> T&uacute ves como un maestro pinta una foto","{""Q0"":1}","practice","45705","survey-likert","4","59462","0.0-3.0-0.1","37","1","2022-11-29 21:25:03","2df368f4e41f066fd1c82c297b4a1108","187.193.186.52","Mozilla/5.0 (Windows NT 10.0; Win64; x64) AppleWebKit/537.36 (KHTML, like Gecko) Chrome/107.0.0.0 Safari/537.36","WebKit","Chrome","107.0.0.0","Windows","10.0","[0]","1","","",""
"41431","You see how a teacher is drawing a picture <br> T&uacute ves como un maestro pinta una foto","{""Q0"":""drawing is dibujo in spanish, not painting""}","practice_low_rate","45705","survey-text","5","100905","0.0-3.0-1.1-0.1","37","1","2022-11-29 21:25:03","2df368f4e41f066fd1c82c297b4a1108","187.193.186.52","Mozilla/5.0 (Windows NT 10.0; Win64; x64) AppleWebKit/537.36 (KHTML, like Gecko) Chrome/107.0.0.0 Safari/537.36","WebKit","Chrome","107.0.0.0","Windows","10.0","","","4","",""
"8469","You drop a rock on a phone <br> T&uacute tiras una piedra a un tel&eacutefono","{""Q0"":4}","practice","45705","survey-likert","6","109378","0.0-3.0-0.2","37","1","2022-11-29 21:25:03","2df368f4e41f066fd1c82c297b4a1108","187.193.186.52","Mozilla/5.0 (Windows NT 10.0; Win64; x64) AppleWebKit/537.36 (KHTML, like Gecko) Chrome/107.0.0.0 Safari/537.36","WebKit","Chrome","107.0.0.0","Windows","10.0","[0]","4","","",""
"4832","You see how an artist is running <br> T&uacute ves como un artista est&aacute corriendo","{""Q0"":4}","practice","45705","survey-likert","7","114217","0.0-3.0-0.3","37","1","2022-11-29 21:25:03","2df368f4e41f066fd1c82c297b4a1108","187.193.186.52","Mozilla/5.0 (Windows NT 10.0; Win64; x64) AppleWebKit/537.36 (KHTML, like Gecko) Chrome/107.0.0.0 Safari/537.36","WebKit","Chrome","107.0.0.0","Windows","10.0","[0]","4","","",""
"21632","You drop a bowling ball on a mircrowave <br> T&uacute tiras una bola de boliche a un horno","{""Q0"":3}","practice","45705","survey-likert","8","135859","0.0-3.0-0.4","37","1","2022-11-29 21:25:03","2df368f4e41f066fd1c82c297b4a1108","187.193.186.52","Mozilla/5.0 (Windows NT 10.0; Win64; x64) AppleWebKit/537.36 (KHTML, like Gecko) Chrome/107.0.0.0 Safari/537.36","WebKit","Chrome","107.0.0.0","Windows","10.0","[0]","3","","",""
"19742","You see how a tiger is playing with a goose <br> T&uacute ves como un le&oacuten come una pizza","{""Q0"":0}","practice","45705","survey-likert","9","155609","0.0-3.0-0.5","37","1","2022-11-29 21:25:03","2df368f4e41f066fd1c82c297b4a1108","187.193.186.52","Mozilla/5.0 (Windows NT 10.0; Win64; x64) AppleWebKit/537.36 (KHTML, like Gecko) Chrome/107.0.0.0 Safari/537.36","WebKit","Chrome","107.0.0.0","Windows","10.0","[0]","0","","",""
"38635","You see how a tiger is playing with a goose <br> T&uacute ves como un le&oacuten come una pizza","{""Q0"":""Tu ves como un tigre está jugando con un ganso""}","practice_low_rate","45705","survey-text","10","194253","0.0-3.0-1.5-0.5","37","1","2022-11-29 21:25:03","2df368f4e41f066fd1c82c297b4a1108","187.193.186.52","Mozilla/5.0 (Windows NT 10.0; Win64; x64) AppleWebKit/537.36 (KHTML, like Gecko) Chrome/107.0.0.0 Safari/537.36","WebKit","Chrome","107.0.0.0","Windows","10.0","","","5","",""
"2888","<p style=""font-size:20px;"">You have now completed the practice session! </p>
        <p style=""font-size:20px;"">You will now move on to the main experiment. </p>
        <p style=""font-size:20px;"">Please click the button below to continue. </p>","0","movetoexp","45705","html-button-response","11","197144","0.0-4.0","37","1","2022-11-29 21:25:03","2df368f4e41f066fd1c82c297b4a1108","187.193.186.52","Mozilla/5.0 (Windows NT 10.0; Win64; x64) AppleWebKit/537.36 (KHTML, like Gecko) Chrome/107.0.0.0 Safari/537.36","WebKit","Chrome","107.0.0.0","Windows","10.0","","","","",""
"15462","You drop a pencil on the shoe <br> T&uacute tiras un l&aacutepiz al zapato","{""Q0"":4}","trial","45705","survey-likert","12","212608","0.0-5.0-0.0","37","1","2022-11-29 21:25:03","2df368f4e41f066fd1c82c297b4a1108","187.193.186.52","Mozilla/5.0 (Windows NT 10.0; Win64; x64) AppleWebKit/537.36 (KHTML, like Gecko) Chrome/107.0.0.0 Safari/537.36","WebKit","Chrome","107.0.0.0","Windows","10.0","[0]","","40","4",""
"6472","You see how a dentist is drinking a can of cola <br> T&uacute ves como un dentista est&aacute bebiendo una lata de cola","{""Q0"":4}","trial","45705","survey-likert","13","219088","0.0-5.0-0.1","37","1","2022-11-29 21:25:03","2df368f4e41f066fd1c82c297b4a1108","187.193.186.52","Mozilla/5.0 (Windows NT 10.0; Win64; x64) AppleWebKit/537.36 (KHTML, like Gecko) Chrome/107.0.0.0 Safari/537.36","WebKit","Chrome","107.0.0.0","Windows","10.0","[0]","","47","4",""
"11069","You see how a woman is taking money out of a wallet <br> T&uacute ves como una mujer est&aacute sacando dinero de su billetera","{""Q0"":3}","trial","45705","survey-likert","14","230160","0.0-5.0-0.2","37","1","2022-11-29 21:25:03","2df368f4e41f066fd1c82c297b4a1108","187.193.186.52","Mozilla/5.0 (Windows NT 10.0; Win64; x64) AppleWebKit/537.36 (KHTML, like Gecko) Chrome/107.0.0.0 Safari/537.36","WebKit","Chrome","107.0.0.0","Windows","10.0","[0]","","44","3",""
"9204","You drop a thermometer on the box <br> T&uacute tiras un term&oacutemetro a la caja","{""Q0"":3}","trial","45705","survey-likert","15","239371","0.0-5.0-0.3","37","1","2022-11-29 21:25:03","2df368f4e41f066fd1c82c297b4a1108","187.193.186.52","Mozilla/5.0 (Windows NT 10.0; Win64; x64) AppleWebKit/537.36 (KHTML, like Gecko) Chrome/107.0.0.0 Safari/537.36","WebKit","Chrome","107.0.0.0","Windows","10.0","[0]","","70","3",""
"9166","You see how a woman is paying with a debit card <br> T&uacute ves como una mujer est&aacute pagando con una tarjeta de d&eacutebito","{""Q0"":4}","trial","45705","survey-likert","16","248545","0.0-5.0-0.4","37","1","2022-11-29 21:25:03","2df368f4e41f066fd1c82c297b4a1108","187.193.186.52","Mozilla/5.0 (Windows NT 10.0; Win64; x64) AppleWebKit/537.36 (KHTML, like Gecko) Chrome/107.0.0.0 Safari/537.36","WebKit","Chrome","107.0.0.0","Windows","10.0","[0]","","64","4",""
"11929","You drop a bowling ball on an empty can of beer <br> T&uacute tiras una bola de boliche a una lata de cerveza vac&iacutea","{""Q0"":4}","trial","45705","survey-likert","17","260480","0.0-5.0-0.5","37","1","2022-11-29 21:25:03","2df368f4e41f066fd1c82c297b4a1108","187.193.186.52","Mozilla/5.0 (Windows NT 10.0; Win64; x64) AppleWebKit/537.36 (KHTML, like Gecko) Chrome/107.0.0.0 Safari/537.36","WebKit","Chrome","107.0.0.0","Windows","10.0","[0]","","3","4",""
"6444","You see how a teenage girl is playing the piano <br> T&uacute ves como una ni&ntildea adolescente est&aacute tocando el piano","{""Q0"":4}","trial","45705","survey-likert","18","266930","0.0-5.0-0.6","37","1","2022-11-29 21:25:03","2df368f4e41f066fd1c82c297b4a1108","187.193.186.52","Mozilla/5.0 (Windows NT 10.0; Win64; x64) AppleWebKit/537.36 (KHTML, like Gecko) Chrome/107.0.0.0 Safari/537.36","WebKit","Chrome","107.0.0.0","Windows","10.0","[0]","","54","4",""
"4220","You drop a towel on the TV <br> T&uacute tiras una toalla a la televisi&oacuten","{""Q0"":4}","trial","45705","survey-likert","19","271157","0.0-5.0-0.7","37","1","2022-11-29 21:25:03","2df368f4e41f066fd1c82c297b4a1108","187.193.186.52","Mozilla/5.0 (Windows NT 10.0; Win64; x64) AppleWebKit/537.36 (KHTML, like Gecko) Chrome/107.0.0.0 Safari/537.36","WebKit","Chrome","107.0.0.0","Windows","10.0","[0]","","53","4",""
"5374","You drop a bowling ball on a strawberry <br> T&uacute tiras una bola de boliche a una fresa","{""Q0"":4}","trial","45705","survey-likert","20","276537","0.0-5.0-0.8","37","1","2022-11-29 21:25:03","2df368f4e41f066fd1c82c297b4a1108","187.193.186.52","Mozilla/5.0 (Windows NT 10.0; Win64; x64) AppleWebKit/537.36 (KHTML, like Gecko) Chrome/107.0.0.0 Safari/537.36","WebKit","Chrome","107.0.0.0","Windows","10.0","[0]","","20","4",""
"4768","You drop a bowling ball on an iPhone <br> T&uacute tiras una bola de boliche a un iPhone","{""Q0"":4}","trial","45705","survey-likert","21","281308","0.0-5.0-0.9","37","1","2022-11-29 21:25:03","2df368f4e41f066fd1c82c297b4a1108","187.193.186.52","Mozilla/5.0 (Windows NT 10.0; Win64; x64) AppleWebKit/537.36 (KHTML, like Gecko) Chrome/107.0.0.0 Safari/537.36","WebKit","Chrome","107.0.0.0","Windows","10.0","[0]","","13","4",""
"6728","You see how a butterfly is sitting on a flower <br> T&uacute ves como una mariposa est&aacute reposando en una flor","{""Q0"":4}","trial","45705","survey-likert","22","288044","0.0-5.0-0.10","37","1","2022-11-29 21:25:03","2df368f4e41f066fd1c82c297b4a1108","187.193.186.52","Mozilla/5.0 (Windows NT 10.0; Win64; x64) AppleWebKit/537.36 (KHTML, like Gecko) Chrome/107.0.0.0 Safari/537.36","WebKit","Chrome","107.0.0.0","Windows","10.0","[0]","","59","4",""
"5921","You see how a giraffe is playing with a zebra <br> T&uacute ves como una jirafa est&aacute jugando con una cebra","{""Q0"":4}","trial","45705","survey-likert","23","293974","0.0-5.0-0.11","37","1","2022-11-29 21:25:03","2df368f4e41f066fd1c82c297b4a1108","187.193.186.52","Mozilla/5.0 (Windows NT 10.0; Win64; x64) AppleWebKit/537.36 (KHTML, like Gecko) Chrome/107.0.0.0 Safari/537.36","WebKit","Chrome","107.0.0.0","Windows","10.0","[0]","","65","4",""
"6127","You see how a man is playing with a cat <br> T&uacute ves como un hombre est&aacute jugando con un gato","{""Q0"":4}","trial","45705","survey-likert","24","300108","0.0-5.0-0.12","37","1","2022-11-29 21:25:03","2df368f4e41f066fd1c82c297b4a1108","187.193.186.52","Mozilla/5.0 (Windows NT 10.0; Win64; x64) AppleWebKit/537.36 (KHTML, like Gecko) Chrome/107.0.0.0 Safari/537.36","WebKit","Chrome","107.0.0.0","Windows","10.0","[0]","","67","4",""
"42155","You drop a bowling ball on a porcelain figure <br> T&uacute tiras una bola de boliche a una figura de porcelana","{""Q0"":4}","trial","45705","survey-likert","25","342269","0.0-5.0-0.13","37","1","2022-11-29 21:25:03","2df368f4e41f066fd1c82c297b4a1108","187.193.186.52","Mozilla/5.0 (Windows NT 10.0; Win64; x64) AppleWebKit/537.36 (KHTML, like Gecko) Chrome/107.0.0.0 Safari/537.36","WebKit","Chrome","107.0.0.0","Windows","10.0","[0]","","1","4",""
"4447","You see how an elephant is eating a watermelon <br> T&uacute ves como un elefante est&aacute comiendo una sand&iacutea","{""Q0"":4}","trial","45705","survey-likert","26","346724","0.0-5.0-0.14","37","1","2022-11-29 21:25:03","2df368f4e41f066fd1c82c297b4a1108","187.193.186.52","Mozilla/5.0 (Windows NT 10.0; Win64; x64) AppleWebKit/537.36 (KHTML, like Gecko) Chrome/107.0.0.0 Safari/537.36","WebKit","Chrome","107.0.0.0","Windows","10.0","[0]","","31","4",""
"4817","You see how a man is shaving his beard <br> T&uacute ves como un hombre se est&aacute afeitando la barba","{""Q0"":4}","trial","45705","survey-likert","27","351544","0.0-5.0-0.15","37","1","2022-11-29 21:25:03","2df368f4e41f066fd1c82c297b4a1108","187.193.186.52","Mozilla/5.0 (Windows NT 10.0; Win64; x64) AppleWebKit/537.36 (KHTML, like Gecko) Chrome/107.0.0.0 Safari/537.36","WebKit","Chrome","107.0.0.0","Windows","10.0","[0]","","43","4",""
"4246","You see how a police officer is talking on the phone <br> T&uacute ves como un polic&iacutea est&aacute hablando por el tel&eacutefono","{""Q0"":4}","trial","45705","survey-likert","28","355797","0.0-5.0-0.16","37","1","2022-11-29 21:25:03","2df368f4e41f066fd1c82c297b4a1108","187.193.186.52","Mozilla/5.0 (Windows NT 10.0; Win64; x64) AppleWebKit/537.36 (KHTML, like Gecko) Chrome/107.0.0.0 Safari/537.36","WebKit","Chrome","107.0.0.0","Windows","10.0","[0]","","62","4",""
"20231","You see how a man is boiling potatoes <br> T&uacute ves a un hombre est&aacute hirviendo papas","{""Q0"":1}","trial","45705","survey-likert","29","376036","0.0-5.0-0.17","37","1","2022-11-29 21:25:03","2df368f4e41f066fd1c82c297b4a1108","187.193.186.52","Mozilla/5.0 (Windows NT 10.0; Win64; x64) AppleWebKit/537.36 (KHTML, like Gecko) Chrome/107.0.0.0 Safari/537.36","WebKit","Chrome","107.0.0.0","Windows","10.0","[0]","","46","1",""
"20992","You see how a man is boiling potatoes <br> T&uacute ves a un hombre est&aacute hirviendo papas","{""Q0"":""Tu ves como un hombre está hirviendo papas""}","low_rate","45705","survey-text","30","397037","0.0-5.0-1.17-0.17","37","1","2022-11-29 21:25:03","2df368f4e41f066fd1c82c297b4a1108","187.193.186.52","Mozilla/5.0 (Windows NT 10.0; Win64; x64) AppleWebKit/537.36 (KHTML, like Gecko) Chrome/107.0.0.0 Safari/537.36","WebKit","Chrome","107.0.0.0","Windows","10.0","","","46","",""
"8868","You see how a kitten is playing in the sandbox <br> T&uacute ves como un gatito est&aacute jugando en la caja de arena","{""Q0"":4}","trial","45705","survey-likert","31","405907","0.0-5.0-0.18","37","1","2022-11-29 21:25:03","2df368f4e41f066fd1c82c297b4a1108","187.193.186.52","Mozilla/5.0 (Windows NT 10.0; Win64; x64) AppleWebKit/537.36 (KHTML, like Gecko) Chrome/107.0.0.0 Safari/537.36","WebKit","Chrome","107.0.0.0","Windows","10.0","[0]","","52","4",""
"4673","You see how a doctor is taking a stethoscope <br> T&uacute ves como un doctor est&aacute agarrando un estetoscopio","{""Q0"":4}","trial","45705","survey-likert","32","410587","0.0-5.0-0.19","37","1","2022-11-29 21:25:03","2df368f4e41f066fd1c82c297b4a1108","187.193.186.52","Mozilla/5.0 (Windows NT 10.0; Win64; x64) AppleWebKit/537.36 (KHTML, like Gecko) Chrome/107.0.0.0 Safari/537.36","WebKit","Chrome","107.0.0.0","Windows","10.0","[0]","","49","4",""
"3902","You see how a panda is resting on a tree <br> T&uacute ves como un panda est&aacute descansando en un &aacuterbol","{""Q0"":4}","trial","45705","survey-likert","33","414496","0.0-5.0-0.20","37","1","2022-11-29 21:25:03","2df368f4e41f066fd1c82c297b4a1108","187.193.186.52","Mozilla/5.0 (Windows NT 10.0; Win64; x64) AppleWebKit/537.36 (KHTML, like Gecko) Chrome/107.0.0.0 Safari/537.36","WebKit","Chrome","107.0.0.0","Windows","10.0","[0]","","57","4",""
"3678","You drop a bowling ball on a tile <br> T&uacute tiras una bola de boliche a una baldosa","{""Q0"":4}","trial","45705","survey-likert","34","418182","0.0-5.0-0.21","37","1","2022-11-29 21:25:03","2df368f4e41f066fd1c82c297b4a1108","187.193.186.52","Mozilla/5.0 (Windows NT 10.0; Win64; x64) AppleWebKit/537.36 (KHTML, like Gecko) Chrome/107.0.0.0 Safari/537.36","WebKit","Chrome","107.0.0.0","Windows","10.0","[0]","","22","4",""
"4412","You see how a donkey is drinking water <br> T&uacute ves como un burro est&aacute bebiendo agua","{""Q0"":4}","trial","45705","survey-likert","35","422601","0.0-5.0-0.22","37","1","2022-11-29 21:25:03","2df368f4e41f066fd1c82c297b4a1108","187.193.186.52","Mozilla/5.0 (Windows NT 10.0; Win64; x64) AppleWebKit/537.36 (KHTML, like Gecko) Chrome/107.0.0.0 Safari/537.36","WebKit","Chrome","107.0.0.0","Windows","10.0","[0]","","45","4",""
"3106","You drop a bowling ball on a cracker <br> T&uacute tiras una bola de boliche a una galleta","{""Q0"":4}","trial","45705","survey-likert","36","425715","0.0-5.0-0.23","37","1","2022-11-29 21:25:03","2df368f4e41f066fd1c82c297b4a1108","187.193.186.52","Mozilla/5.0 (Windows NT 10.0; Win64; x64) AppleWebKit/537.36 (KHTML, like Gecko) Chrome/107.0.0.0 Safari/537.36","WebKit","Chrome","107.0.0.0","Windows","10.0","[0]","","4","4",""
"3628","You see how a zebra is playing with a horse <br> T&uacute ves como una cebra est&aacute jugando con un caballo","{""Q0"":4}","trial","45705","survey-likert","37","429349","0.0-5.0-0.24","37","1","2022-11-29 21:25:03","2df368f4e41f066fd1c82c297b4a1108","187.193.186.52","Mozilla/5.0 (Windows NT 10.0; Win64; x64) AppleWebKit/537.36 (KHTML, like Gecko) Chrome/107.0.0.0 Safari/537.36","WebKit","Chrome","107.0.0.0","Windows","10.0","[0]","","66","4",""
"5725","You see how a thief is stealing a wallet <br> T&uacute ves como un ladr&oacuten est&aacute robando una billetera","{""Q0"":4}","trial","45705","survey-likert","38","435082","0.0-5.0-0.25","37","1","2022-11-29 21:25:03","2df368f4e41f066fd1c82c297b4a1108","187.193.186.52","Mozilla/5.0 (Windows NT 10.0; Win64; x64) AppleWebKit/537.36 (KHTML, like Gecko) Chrome/107.0.0.0 Safari/537.36","WebKit","Chrome","107.0.0.0","Windows","10.0","[0]","","68","4",""
"3186","You drop a bowling ball on a donut <br> T&uacute tiras una bola de boliche a una rosquilla","{""Q0"":4}","trial","45705","survey-likert","39","438275","0.0-5.0-0.26","37","1","2022-11-29 21:25:03","2df368f4e41f066fd1c82c297b4a1108","187.193.186.52","Mozilla/5.0 (Windows NT 10.0; Win64; x64) AppleWebKit/537.36 (KHTML, like Gecko) Chrome/107.0.0.0 Safari/537.36","WebKit","Chrome","107.0.0.0","Windows","10.0","[0]","","17","4",""
"5414","You see how a cook is taking a knife <br> T&uacute ves como un cocinero est&aacute agarrando un cuchillo","{""Q0"":4}","trial","45705","survey-likert","40","443695","0.0-5.0-0.27","37","1","2022-11-29 21:25:03","2df368f4e41f066fd1c82c297b4a1108","187.193.186.52","Mozilla/5.0 (Windows NT 10.0; Win64; x64) AppleWebKit/537.36 (KHTML, like Gecko) Chrome/107.0.0.0 Safari/537.36","WebKit","Chrome","107.0.0.0","Windows","10.0","[0]","","71","4",""
"5463","You drop a bowling ball on a rice cake <br> T&uacute tiras una bola de boliche a una tortita de arroz","{""Q0"":4}","trial","45705","survey-likert","41","449166","0.0-5.0-0.28","37","1","2022-11-29 21:25:03","2df368f4e41f066fd1c82c297b4a1108","187.193.186.52","Mozilla/5.0 (Windows NT 10.0; Win64; x64) AppleWebKit/537.36 (KHTML, like Gecko) Chrome/107.0.0.0 Safari/537.36","WebKit","Chrome","107.0.0.0","Windows","10.0","[0]","","18","4",""
"3730","You drop a watch on the laptop <br> T&uacute tiras un reloj al port&aacutetil","{""Q0"":4}","trial","45705","survey-likert","42","452904","0.0-5.0-0.29","37","1","2022-11-29 21:25:03","2df368f4e41f066fd1c82c297b4a1108","187.193.186.52","Mozilla/5.0 (Windows NT 10.0; Win64; x64) AppleWebKit/537.36 (KHTML, like Gecko) Chrome/107.0.0.0 Safari/537.36","WebKit","Chrome","107.0.0.0","Windows","10.0","[0]","","37","4",""
"16076","You drop a bowling ball on an egg flan <br> T&uacute tiras una bola de boliche a un flan","{""Q0"":4}","trial","45705","survey-likert","43","468988","0.0-5.0-0.30","37","1","2022-11-29 21:25:03","2df368f4e41f066fd1c82c297b4a1108","187.193.186.52","Mozilla/5.0 (Windows NT 10.0; Win64; x64) AppleWebKit/537.36 (KHTML, like Gecko) Chrome/107.0.0.0 Safari/537.36","WebKit","Chrome","107.0.0.0","Windows","10.0","[0]","","7","4",""
"3934","You see how a hairdresser is taking scissors <br> T&uacute ves como una peluquera est&aacute agarrando las tijeras","{""Q0"":4}","trial","45705","survey-likert","44","472926","0.0-5.0-0.31","37","1","2022-11-29 21:25:03","2df368f4e41f066fd1c82c297b4a1108","187.193.186.52","Mozilla/5.0 (Windows NT 10.0; Win64; x64) AppleWebKit/537.36 (KHTML, like Gecko) Chrome/107.0.0.0 Safari/537.36","WebKit","Chrome","107.0.0.0","Windows","10.0","[0]","","60","4",""
"6898","You see how a student is writing on a board <br> T&uacute ves como un estudiante est&aacute escribiendo en la pizarra","{""Q0"":4}","trial","45705","survey-likert","45","479827","0.0-5.0-0.32","37","1","2022-11-29 21:25:03","2df368f4e41f066fd1c82c297b4a1108","187.193.186.52","Mozilla/5.0 (Windows NT 10.0; Win64; x64) AppleWebKit/537.36 (KHTML, like Gecko) Chrome/107.0.0.0 Safari/537.36","WebKit","Chrome","107.0.0.0","Windows","10.0","[0]","","50","4",""
"4758","You drop a fork on the plate <br> T&uacute tiras un tenedor al plato","{""Q0"":4}","trial","45705","survey-likert","46","484593","0.0-5.0-0.33","37","1","2022-11-29 21:25:03","2df368f4e41f066fd1c82c297b4a1108","187.193.186.52","Mozilla/5.0 (Windows NT 10.0; Win64; x64) AppleWebKit/537.36 (KHTML, like Gecko) Chrome/107.0.0.0 Safari/537.36","WebKit","Chrome","107.0.0.0","Windows","10.0","[0]","","26","4",""
"5200","You drop a needle on the mouse pad <br> T&uacute tiras una aguja a la alfombrilla para el rat&oacuten","{""Q0"":4}","trial","45705","survey-likert","47","489801","0.0-5.0-0.34","37","1","2022-11-29 21:25:03","2df368f4e41f066fd1c82c297b4a1108","187.193.186.52","Mozilla/5.0 (Windows NT 10.0; Win64; x64) AppleWebKit/537.36 (KHTML, like Gecko) Chrome/107.0.0.0 Safari/537.36","WebKit","Chrome","107.0.0.0","Windows","10.0","[0]","","42","4",""
"7228","You see how an owl is sitting on the branch <br> T&uacute ves como un b&uacuteho est&aacute reposando en una rama","{""Q0"":4}","trial","45705","survey-likert","48","497037","0.0-5.0-0.35","37","1","2022-11-29 21:25:03","2df368f4e41f066fd1c82c297b4a1108","187.193.186.52","Mozilla/5.0 (Windows NT 10.0; Win64; x64) AppleWebKit/537.36 (KHTML, like Gecko) Chrome/107.0.0.0 Safari/537.36","WebKit","Chrome","107.0.0.0","Windows","10.0","[0]","","69","4",""
"12160","You see how a musician is playing a guitar <br> T&uacute ves como un m&uacutesico est&aacute tocando la guitarra","{""Q0"":4}","trial","45705","survey-likert","49","509205","0.0-5.0-0.36","37","1","2022-11-29 21:25:03","2df368f4e41f066fd1c82c297b4a1108","187.193.186.52","Mozilla/5.0 (Windows NT 10.0; Win64; x64) AppleWebKit/537.36 (KHTML, like Gecko) Chrome/107.0.0.0 Safari/537.36","WebKit","Chrome","107.0.0.0","Windows","10.0","[0]","","27","4",""
"7583","You drop a bowling ball on a blackberry <br> T&uacute tiras una bola de boliche a una mora","{""Q0"":4}","trial","45705","survey-likert","50","516797","0.0-5.0-0.37","37","1","2022-11-29 21:25:03","2df368f4e41f066fd1c82c297b4a1108","187.193.186.52","Mozilla/5.0 (Windows NT 10.0; Win64; x64) AppleWebKit/537.36 (KHTML, like Gecko) Chrome/107.0.0.0 Safari/537.36","WebKit","Chrome","107.0.0.0","Windows","10.0","[0]","","8","4",""
"6085","You see how an actress is taking a microphone <br> T&uacute ves como una actriz est&aacute agarrando el micr&oacutefono","{""Q0"":4}","trial","45705","survey-likert","51","522890","0.0-5.0-0.38","37","1","2022-11-29 21:25:03","2df368f4e41f066fd1c82c297b4a1108","187.193.186.52","Mozilla/5.0 (Windows NT 10.0; Win64; x64) AppleWebKit/537.36 (KHTML, like Gecko) Chrome/107.0.0.0 Safari/537.36","WebKit","Chrome","107.0.0.0","Windows","10.0","[0]","","51","4",""
"5041","You drop a bowling ball on an iPAD <br> T&uacute tiras una bola de boliche a un iPad","{""Q0"":4}","trial","45705","survey-likert","52","527939","0.0-5.0-0.39","37","1","2022-11-29 21:25:03","2df368f4e41f066fd1c82c297b4a1108","187.193.186.52","Mozilla/5.0 (Windows NT 10.0; Win64; x64) AppleWebKit/537.36 (KHTML, like Gecko) Chrome/107.0.0.0 Safari/537.36","WebKit","Chrome","107.0.0.0","Windows","10.0","[0]","","12","4",""
"11778","You drop a cabbage on the table <br> T&uacute tiras una col a la mesa","{""Q0"":4}","trial","45705","survey-likert","53","539726","0.0-5.0-0.40","37","1","2022-11-29 21:25:03","2df368f4e41f066fd1c82c297b4a1108","187.193.186.52","Mozilla/5.0 (Windows NT 10.0; Win64; x64) AppleWebKit/537.36 (KHTML, like Gecko) Chrome/107.0.0.0 Safari/537.36","WebKit","Chrome","107.0.0.0","Windows","10.0","[0]","","35","4",""
"4190","You see how a pilot is reading a book <br> T&uacute ves como un piloto est&aacute leyendo un libro","{""Q0"":4}","trial","45705","survey-likert","54","543924","0.0-5.0-0.41","37","1","2022-11-29 21:25:03","2df368f4e41f066fd1c82c297b4a1108","187.193.186.52","Mozilla/5.0 (Windows NT 10.0; Win64; x64) AppleWebKit/537.36 (KHTML, like Gecko) Chrome/107.0.0.0 Safari/537.36","WebKit","Chrome","107.0.0.0","Windows","10.0","[0]","","61","4",""
"3278","You see how a postman is driving a car <br> T&uacute ves como un cartero est&aacute conduciendo un coche","{""Q0"":4}","trial","45705","survey-likert","55","547210","0.0-5.0-0.42","37","1","2022-11-29 21:25:03","2df368f4e41f066fd1c82c297b4a1108","187.193.186.52","Mozilla/5.0 (Windows NT 10.0; Win64; x64) AppleWebKit/537.36 (KHTML, like Gecko) Chrome/107.0.0.0 Safari/537.36","WebKit","Chrome","107.0.0.0","Windows","10.0","[0]","","32","4",""
"7501","You drop a bowling ball on a paper cup <br> T&uacute tiras una bola de boliche a un vaso de papel","{""Q0"":4}","trial","45705","survey-likert","56","554721","0.0-5.0-0.43","37","1","2022-11-29 21:25:03","2df368f4e41f066fd1c82c297b4a1108","187.193.186.52","Mozilla/5.0 (Windows NT 10.0; Win64; x64) AppleWebKit/537.36 (KHTML, like Gecko) Chrome/107.0.0.0 Safari/537.36","WebKit","Chrome","107.0.0.0","Windows","10.0","[0]","","24","4",""
"3806","You drop a bowling ball on a ceramic plate <br> T&uacute tiras una bola de boliche a un plato de cer&aacutemica","{""Q0"":4}","trial","45705","survey-likert","57","558536","0.0-5.0-0.44","37","1","2022-11-29 21:25:03","2df368f4e41f066fd1c82c297b4a1108","187.193.186.52","Mozilla/5.0 (Windows NT 10.0; Win64; x64) AppleWebKit/537.36 (KHTML, like Gecko) Chrome/107.0.0.0 Safari/537.36","WebKit","Chrome","107.0.0.0","Windows","10.0","[0]","","19","4",""
"255098","You drop a bowling ball on a tomato <br> T&uacute tiras una bola de boliche a un tomate","{""Q0"":4}","trial","45705","survey-likert","58","813644","0.0-5.0-0.45","37","1","2022-11-29 21:25:03","2df368f4e41f066fd1c82c297b4a1108","187.193.186.52","Mozilla/5.0 (Windows NT 10.0; Win64; x64) AppleWebKit/537.36 (KHTML, like Gecko) Chrome/107.0.0.0 Safari/537.36","WebKit","Chrome","107.0.0.0","Windows","10.0","[0]","","23","4",""
"13820","You drop a remote on the rug <br> T&uacute tiras un control remoto a la alfombra","{""Q0"":4}","trial","45705","survey-likert","59","827467","0.0-5.0-0.46","37","1","2022-11-29 21:25:03","2df368f4e41f066fd1c82c297b4a1108","187.193.186.52","Mozilla/5.0 (Windows NT 10.0; Win64; x64) AppleWebKit/537.36 (KHTML, like Gecko) Chrome/107.0.0.0 Safari/537.36","WebKit","Chrome","107.0.0.0","Windows","10.0","[0]","","39","4",""
"3623","You drop a keyboard on the bed <br> T&uacute tiras un teclado a la cama","{""Q0"":4}","trial","45705","survey-likert","60","831094","0.0-5.0-0.47","37","1","2022-11-29 21:25:03","2df368f4e41f066fd1c82c297b4a1108","187.193.186.52","Mozilla/5.0 (Windows NT 10.0; Win64; x64) AppleWebKit/537.36 (KHTML, like Gecko) Chrome/107.0.0.0 Safari/537.36","WebKit","Chrome","107.0.0.0","Windows","10.0","[0]","","36","4",""
"5138","You drop a bowling ball on a wine glass <br> T&uacute tiras una bola de boliche a una copa de vino","{""Q0"":4}","trial","45705","survey-likert","61","836236","0.0-5.0-0.48","37","1","2022-11-29 21:25:03","2df368f4e41f066fd1c82c297b4a1108","187.193.186.52","Mozilla/5.0 (Windows NT 10.0; Win64; x64) AppleWebKit/537.36 (KHTML, like Gecko) Chrome/107.0.0.0 Safari/537.36","WebKit","Chrome","107.0.0.0","Windows","10.0","[0]","","5","4",""
"9362","You see how a photographer is taking a photo of a lion <br> T&uacute ves como un fot&oacutegrafo est&aacute tomando una foto de un le&oacuten","{""Q0"":4}","trial","45705","survey-likert","62","845602","0.0-5.0-0.49","37","1","2022-11-29 21:25:03","2df368f4e41f066fd1c82c297b4a1108","187.193.186.52","Mozilla/5.0 (Windows NT 10.0; Win64; x64) AppleWebKit/537.36 (KHTML, like Gecko) Chrome/107.0.0.0 Safari/537.36","WebKit","Chrome","107.0.0.0","Windows","10.0","[0]","","72","4",""
"4211","You drop a bowling ball on a light bulb <br> T&uacute tiras una bola de boliche a una bombilla","{""Q0"":4}","trial","45705","survey-likert","63","849819","0.0-5.0-0.50","37","1","2022-11-29 21:25:03","2df368f4e41f066fd1c82c297b4a1108","187.193.186.52","Mozilla/5.0 (Windows NT 10.0; Win64; x64) AppleWebKit/537.36 (KHTML, like Gecko) Chrome/107.0.0.0 Safari/537.36","WebKit","Chrome","107.0.0.0","Windows","10.0","[0]","","14","4",""
"5895","You see how a president is writing in the notebook <br> T&uacute ves como un presidente est&aacute escribiendo en la libreta","{""Q0"":4}","trial","45705","survey-likert","64","855717","0.0-5.0-0.51","37","1","2022-11-29 21:25:03","2df368f4e41f066fd1c82c297b4a1108","187.193.186.52","Mozilla/5.0 (Windows NT 10.0; Win64; x64) AppleWebKit/537.36 (KHTML, like Gecko) Chrome/107.0.0.0 Safari/537.36","WebKit","Chrome","107.0.0.0","Windows","10.0","[0]","","63","4",""
"9563","You see how a boy is peeling a banana <br> T&uacute ves como un ni&ntildeo est&aacute pelando una banana","{""Q0"":4}","trial","45705","survey-likert","65","865285","0.0-5.0-0.52","37","1","2022-11-29 21:25:03","2df368f4e41f066fd1c82c297b4a1108","187.193.186.52","Mozilla/5.0 (Windows NT 10.0; Win64; x64) AppleWebKit/537.36 (KHTML, like Gecko) Chrome/107.0.0.0 Safari/537.36","WebKit","Chrome","107.0.0.0","Windows","10.0","[0]","","30","4",""
"5845","You drop a bowling ball on a hat <br> T&uacute tiras una bola de boliche a una gorra","{""Q0"":4}","trial","45705","survey-likert","66","871133","0.0-5.0-0.53","37","1","2022-11-29 21:25:03","2df368f4e41f066fd1c82c297b4a1108","187.193.186.52","Mozilla/5.0 (Windows NT 10.0; Win64; x64) AppleWebKit/537.36 (KHTML, like Gecko) Chrome/107.0.0.0 Safari/537.36","WebKit","Chrome","107.0.0.0","Windows","10.0","[0]","","10","4",""
"5642","You see how a mouse is eating cheese <br> T&uacute ves como el rat&oacuten est&aacute comiendo queso","{""Q0"":4}","trial","45705","survey-likert","67","876780","0.0-5.0-0.54","37","1","2022-11-29 21:25:03","2df368f4e41f066fd1c82c297b4a1108","187.193.186.52","Mozilla/5.0 (Windows NT 10.0; Win64; x64) AppleWebKit/537.36 (KHTML, like Gecko) Chrome/107.0.0.0 Safari/537.36","WebKit","Chrome","107.0.0.0","Windows","10.0","[0]","","56","4",""
"12054","You drop a bowling ball on glasses <br> T&uacute tiras una bola de boliche a unas gafas","{""Q0"":4}","trial","45705","survey-likert","68","888838","0.0-5.0-0.55","37","1","2022-11-29 21:25:03","2df368f4e41f066fd1c82c297b4a1108","187.193.186.52","Mozilla/5.0 (Windows NT 10.0; Win64; x64) AppleWebKit/537.36 (KHTML, like Gecko) Chrome/107.0.0.0 Safari/537.36","WebKit","Chrome","107.0.0.0","Windows","10.0","[0]","","9","4",""
"3170","You drop a bowling ball on an egg <br> T&uacute tiras una bola de boliche a un huevo","{""Q0"":4}","trial","45705","survey-likert","69","892012","0.0-5.0-0.56","37","1","2022-11-29 21:25:03","2df368f4e41f066fd1c82c297b4a1108","187.193.186.52","Mozilla/5.0 (Windows NT 10.0; Win64; x64) AppleWebKit/537.36 (KHTML, like Gecko) Chrome/107.0.0.0 Safari/537.36","WebKit","Chrome","107.0.0.0","Windows","10.0","[0]","","6","4",""
"5488","You see how a horse is chewing hay <br> T&uacute ves como un caballo est&aacute masticando el heno","{""Q0"":4}","trial","45705","survey-likert","70","897504","0.0-5.0-0.57","37","1","2022-11-29 21:25:03","2df368f4e41f066fd1c82c297b4a1108","187.193.186.52","Mozilla/5.0 (Windows NT 10.0; Win64; x64) AppleWebKit/537.36 (KHTML, like Gecko) Chrome/107.0.0.0 Safari/537.36","WebKit","Chrome","107.0.0.0","Windows","10.0","[0]","","55","4",""
"9214","You drop a bowling ball on a chocolate muffin <br> T&uacute tiras una bola de boliche a una magdalena de chocolate","{""Q0"":4}","trial","45705","survey-likert","71","906721","0.0-5.0-0.58","37","1","2022-11-29 21:25:03","2df368f4e41f066fd1c82c297b4a1108","187.193.186.52","Mozilla/5.0 (Windows NT 10.0; Win64; x64) AppleWebKit/537.36 (KHTML, like Gecko) Chrome/107.0.0.0 Safari/537.36","WebKit","Chrome","107.0.0.0","Windows","10.0","[0]","","16","4",""
"3400","You drop a cushion on the magazine <br> T&uacute tiras un coj&iacuten a la revista","{""Q0"":4}","trial","45705","survey-likert","72","910126","0.0-5.0-0.59","37","1","2022-11-29 21:25:03","2df368f4e41f066fd1c82c297b4a1108","187.193.186.52","Mozilla/5.0 (Windows NT 10.0; Win64; x64) AppleWebKit/537.36 (KHTML, like Gecko) Chrome/107.0.0.0 Safari/537.36","WebKit","Chrome","107.0.0.0","Windows","10.0","[0]","","38","4",""
"5117","You see how an astronaut is putting on a space suit <br> T&uacute ves como un astronauta se est&aacute poniendo su traje espacial","{""Q0"":4}","trial","45705","survey-likert","73","915248","0.0-5.0-0.60","37","1","2022-11-29 21:25:03","2df368f4e41f066fd1c82c297b4a1108","187.193.186.52","Mozilla/5.0 (Windows NT 10.0; Win64; x64) AppleWebKit/537.36 (KHTML, like Gecko) Chrome/107.0.0.0 Safari/537.36","WebKit","Chrome","107.0.0.0","Windows","10.0","[0]","","33","4",""
"4734","You see how a parrot is eating an apple <br> T&uacute ves como un loro est&aacute comiendo una manzana","{""Q0"":4}","trial","45705","survey-likert","74","919986","0.0-5.0-0.61","37","1","2022-11-29 21:25:03","2df368f4e41f066fd1c82c297b4a1108","187.193.186.52","Mozilla/5.0 (Windows NT 10.0; Win64; x64) AppleWebKit/537.36 (KHTML, like Gecko) Chrome/107.0.0.0 Safari/537.36","WebKit","Chrome","107.0.0.0","Windows","10.0","[0]","","58","4",""
"3461","You drop a ring on the newspaper <br> T&uacute tiras un anillo al peri&oacutedico","{""Q0"":4}","trial","45705","survey-likert","75","923451","0.0-5.0-0.62","37","1","2022-11-29 21:25:03","2df368f4e41f066fd1c82c297b4a1108","187.193.186.52","Mozilla/5.0 (Windows NT 10.0; Win64; x64) AppleWebKit/537.36 (KHTML, like Gecko) Chrome/107.0.0.0 Safari/537.36","WebKit","Chrome","107.0.0.0","Windows","10.0","[0]","","41","4",""
"3554","You drop a bowling ball on a piece of cake <br> T&uacute tiras una bola de boliche a un trozo de pastel","{""Q0"":4}","trial","45705","survey-likert","76","927009","0.0-5.0-0.63","37","1","2022-11-29 21:25:03","2df368f4e41f066fd1c82c297b4a1108","187.193.186.52","Mozilla/5.0 (Windows NT 10.0; Win64; x64) AppleWebKit/537.36 (KHTML, like Gecko) Chrome/107.0.0.0 Safari/537.36","WebKit","Chrome","107.0.0.0","Windows","10.0","[0]","","2","4",""
"4962","You see how a puppy is playing with a ball <br> T&uacute ves como un cachorro est&aacute jugando con una pelota","{""Q0"":4}","trial","45705","survey-likert","77","931975","0.0-5.0-0.64","37","1","2022-11-29 21:25:03","2df368f4e41f066fd1c82c297b4a1108","187.193.186.52","Mozilla/5.0 (Windows NT 10.0; Win64; x64) AppleWebKit/537.36 (KHTML, like Gecko) Chrome/107.0.0.0 Safari/537.36","WebKit","Chrome","107.0.0.0","Windows","10.0","[0]","","34","4",""
"6472","You see how a nurse is taking a syringe <br> T&uacute ves como una enfermera est&aacute agarrando una jeringuilla","{""Q0"":4}","trial","45705","survey-likert","78","938452","0.0-5.0-0.65","37","1","2022-11-29 21:25:03","2df368f4e41f066fd1c82c297b4a1108","187.193.186.52","Mozilla/5.0 (Windows NT 10.0; Win64; x64) AppleWebKit/537.36 (KHTML, like Gecko) Chrome/107.0.0.0 Safari/537.36","WebKit","Chrome","107.0.0.0","Windows","10.0","[0]","","48","4",""
"5203","You drop a bowling ball on a chocolate ice-cream <br> T&uacute tiras una bola de boliche a un helado de chocolate","{""Q0"":4}","trial","45705","survey-likert","79","943660","0.0-5.0-0.66","37","1","2022-11-29 21:25:03","2df368f4e41f066fd1c82c297b4a1108","187.193.186.52","Mozilla/5.0 (Windows NT 10.0; Win64; x64) AppleWebKit/537.36 (KHTML, like Gecko) Chrome/107.0.0.0 Safari/537.36","WebKit","Chrome","107.0.0.0","Windows","10.0","[0]","","11","4",""
"9259","You drop a bowling ball on a piece of sushi <br> T&uacute tiras una bola de boliche a un pedazo de sushi","{""Q0"":4}","trial","45705","survey-likert","80","952923","0.0-5.0-0.67","37","1","2022-11-29 21:25:03","2df368f4e41f066fd1c82c297b4a1108","187.193.186.52","Mozilla/5.0 (Windows NT 10.0; Win64; x64) AppleWebKit/537.36 (KHTML, like Gecko) Chrome/107.0.0.0 Safari/537.36","WebKit","Chrome","107.0.0.0","Windows","10.0","[0]","","21","4",""
"9507","You drop a toothbrush on the sponge <br> T&uacute tiras un cepillo de dientes en la esponja","{""Q0"":4}","trial","45705","survey-likert","81","962435","0.0-5.0-0.68","37","1","2022-11-29 21:25:03","2df368f4e41f066fd1c82c297b4a1108","187.193.186.52","Mozilla/5.0 (Windows NT 10.0; Win64; x64) AppleWebKit/537.36 (KHTML, like Gecko) Chrome/107.0.0.0 Safari/537.36","WebKit","Chrome","107.0.0.0","Windows","10.0","[0]","","25","4",""
"24986","You see how a cat is drinking water from a bowl <br> T&uacute ves como un gato est&aacute bebiendo agua de un cuenco","{""Q0"":4}","trial","45705","survey-likert","82","987425","0.0-5.0-0.69","37","1","2022-11-29 21:25:03","2df368f4e41f066fd1c82c297b4a1108","187.193.186.52","Mozilla/5.0 (Windows NT 10.0; Win64; x64) AppleWebKit/537.36 (KHTML, like Gecko) Chrome/107.0.0.0 Safari/537.36","WebKit","Chrome","107.0.0.0","Windows","10.0","[0]","","28","4",""
"7200","You see how an old man is hammering a nail <br> T&uacute ves como un hombre anciano est&aacute martillando un clavo","{""Q0"":4}","trial","45705","survey-likert","83","994630","0.0-5.0-0.70","37","1","2022-11-29 21:25:03","2df368f4e41f066fd1c82c297b4a1108","187.193.186.52","Mozilla/5.0 (Windows NT 10.0; Win64; x64) AppleWebKit/537.36 (KHTML, like Gecko) Chrome/107.0.0.0 Safari/537.36","WebKit","Chrome","107.0.0.0","Windows","10.0","[0]","","29","4",""
"5348","You drop a bowling ball on a mirror <br> T&uacute tiras una bola de boliche a un espejo","{""Q0"":4}","trial","45705","survey-likert","84","999982","0.0-5.0-0.71","37","1","2022-11-29 21:25:03","2df368f4e41f066fd1c82c297b4a1108","187.193.186.52","Mozilla/5.0 (Windows NT 10.0; Win64; x64) AppleWebKit/537.36 (KHTML, like Gecko) Chrome/107.0.0.0 Safari/537.36","WebKit","Chrome","107.0.0.0","Windows","10.0","[0]","","15","4",""
"4336","
    <p style=""font-size:20px;""> You have completed the experiment portion! </p>
    <p style=""font-size:20px;""> Before you are done, we would like you to answer some basic demographic questions. </p>
    <p style=""font-size:20px;""> Note that your answers to these questions will not affect your compensation/credit. </p>
    <p style=""font-size:20px;""> Click the button below to continue.</p>
    ","0","demo","45705","html-button-response","85","1004324","0.0-6.0","37","1","2022-11-29 21:25:03","2df368f4e41f066fd1c82c297b4a1108","187.193.186.52","Mozilla/5.0 (Windows NT 10.0; Win64; x64) AppleWebKit/537.36 (KHTML, like Gecko) Chrome/107.0.0.0 Safari/537.36","WebKit","Chrome","107.0.0.0","Windows","10.0","","","","",""
"73402","","{""Age"":""21"",""Gender"":""Non-binary"",""Education"":""17""}","demo","45705","survey-text","86","1077731","0.0-7.0-0.0","37","1","2022-11-29 21:25:03","2df368f4e41f066fd1c82c297b4a1108","187.193.186.52","Mozilla/5.0 (Windows NT 10.0; Win64; x64) AppleWebKit/537.36 (KHTML, like Gecko) Chrome/107.0.0.0 Safari/537.36","WebKit","Chrome","107.0.0.0","Windows","10.0","","","","",""
"5989","","{""Race"":[""Other""]}","demo","45705","survey-multi-select","87","1083727","0.0-7.0-1.0","37","1","2022-11-29 21:25:03","2df368f4e41f066fd1c82c297b4a1108","187.193.186.52","Mozilla/5.0 (Windows NT 10.0; Win64; x64) AppleWebKit/537.36 (KHTML, like Gecko) Chrome/107.0.0.0 Safari/537.36","WebKit","Chrome","107.0.0.0","Windows","10.0","[0]","","","",""
"9844","","{""Latino"":""Yes"",""Alert"":""Evening""}","demo","45705","survey-multi-choice","88","1093577","0.0-7.0-2.0","37","1","2022-11-29 21:25:03","2df368f4e41f066fd1c82c297b4a1108","187.193.186.52","Mozilla/5.0 (Windows NT 10.0; Win64; x64) AppleWebKit/537.36 (KHTML, like Gecko) Chrome/107.0.0.0 Safari/537.36","WebKit","Chrome","107.0.0.0","Windows","10.0","[0,1]","","","",""
"8114","","{""Q0"":""""}","demo","45705","survey-text","89","1101697","0.0-7.0-3.0","37","1","2022-11-29 21:25:03","2df368f4e41f066fd1c82c297b4a1108","187.193.186.52","Mozilla/5.0 (Windows NT 10.0; Win64; x64) AppleWebKit/537.36 (KHTML, like Gecko) Chrome/107.0.0.0 Safari/537.36","WebKit","Chrome","107.0.0.0","Windows","10.0","","","","",""
"11866","<p>Thank you for participating! </p><strong>Your completion code is: CXEJB7NH. Please copy-paste this code and submit it on Prolific.</strong><p>Click <a href=""https://drive.google.com/file/d/1c70cdHFlc0AaR6RujLWLJwWkv1RbHQJY/view?usp=sharing"" target=""_blank"" rel=""noopener noreferrer"">here</a> to access the debriefing form and know more about our research. <p> Please click the button below to finish the experiment and save your data.</p> <p> IMPORTANT: Please <strong>do not leave this page </strong> without clicking the button below.</p> <p> You may close the tab/window after you click the button below.","0","","","html-button-response","90","1113566","0.0-8.0","37","1","2022-11-29 21:25:03","2df368f4e41f066fd1c82c297b4a1108","187.193.186.52","Mozilla/5.0 (Windows NT 10.0; Win64; x64) AppleWebKit/537.36 (KHTML, like Gecko) Chrome/107.0.0.0 Safari/537.36","WebKit","Chrome","107.0.0.0","Windows","10.0","","","","",""
