"rt","stimulus","response","typeoftrial","subject","trial_type","trial_index","time_elapsed","internal_node_id","run_id","condition","recorded_at","source_code_version","ip","user_agent","device","browser","browser_version","platform","platform_version","question_order","practice_rating","sentence_num","rating","Experiment"
"7239","
        <p style=""font-size:20px;""> Welcome! Thank you for your interest in our study. </p>
        <p style=""font-size:20px;""> This study is being conducted by researchers at Bowdoin College.</p>
        <p style=""font-size:20px;""> In this experiment, you will be asked to rate the accuracy of English and Spanish translations.</p>
        <p style=""font-size:20px;""> The entire experiment should not last more than 20 minutes. You will be paid $3 USD for your participation. </p>
        <p style=""font-size:20px;""> Please click <a href = ""https://drive.google.com/file/d/1L92a02eEKCpaAEipmqDcBCDR7rsarqFE/view?usp=sharing"" target = ""_blank"">here</a> to read the full consent form. </p>
        <p style=""font-size:20px;""> If you agree to participate, please click the button below to continue to experiment instructions.</p>
        ","0","consent","93859","html-button-response","0","7242","0.0-0.0","58","1","2022-11-29 21:32:29","2df368f4e41f066fd1c82c297b4a1108","187.208.120.130","Mozilla/5.0 (Windows NT 10.0; Win64; x64) AppleWebKit/537.36 (KHTML, like Gecko) Chrome/107.0.0.0 Safari/537.36","WebKit","Chrome","107.0.0.0","Windows","10.0","","","","",""
"6860","","{""ID"":""614dd5f6c07191a861f2bd78""}","ID","93859","survey-text","1","14111","0.0-1.0","58","1","2022-11-29 21:32:29","2df368f4e41f066fd1c82c297b4a1108","187.208.120.130","Mozilla/5.0 (Windows NT 10.0; Win64; x64) AppleWebKit/537.36 (KHTML, like Gecko) Chrome/107.0.0.0 Safari/537.36","WebKit","Chrome","107.0.0.0","Windows","10.0","","","","",""
"1447","
        <p style=""font-size:20px;""> You are about to begin the practice test. </p>
        <p style=""font-size:20px;""> On each trial, you will see a sentence in English and its corresponding Spanish translation. </p>
        <p style=""font-size:20px;""> You will rate the accuracy of the translation on a scale from ""Not at all accurate"" to ""Very accurate."" </p>
        <p style=""font-size:20px;""> If you rate the translation as ""Somewhat innaccurate"" or ""Not at all accurate,"" you will be asked to provide your own translation or a reason why the translation is inaccurate. </p>
        <p style=""font-size:20px;""> Click the button below to continue to the practice session.</p>","0","instructions","93859","html-button-response","2","15560","0.0-2.0","58","1","2022-11-29 21:32:29","2df368f4e41f066fd1c82c297b4a1108","187.208.120.130","Mozilla/5.0 (Windows NT 10.0; Win64; x64) AppleWebKit/537.36 (KHTML, like Gecko) Chrome/107.0.0.0 Safari/537.36","WebKit","Chrome","107.0.0.0","Windows","10.0","","","","",""
"11697","You drop a bowling ball on a mircrowave <br> T&uacute tiras una bola de boliche a un horno","{""Q0"":4}","practice","93859","survey-likert","3","27260","0.0-3.0-0.0","58","1","2022-11-29 21:32:29","2df368f4e41f066fd1c82c297b4a1108","187.208.120.130","Mozilla/5.0 (Windows NT 10.0; Win64; x64) AppleWebKit/537.36 (KHTML, like Gecko) Chrome/107.0.0.0 Safari/537.36","WebKit","Chrome","107.0.0.0","Windows","10.0","[0]","4","","",""
"11463","You see how a duck is playing with a pumpkin <br> T&uacute ves como un pato est&aacute jugando con una calabaza","{""Q0"":3}","practice","93859","survey-likert","4","38732","0.0-3.0-0.1","58","1","2022-11-29 21:32:29","2df368f4e41f066fd1c82c297b4a1108","187.208.120.130","Mozilla/5.0 (Windows NT 10.0; Win64; x64) AppleWebKit/537.36 (KHTML, like Gecko) Chrome/107.0.0.0 Safari/537.36","WebKit","Chrome","107.0.0.0","Windows","10.0","[0]","3","","",""
"11343","You see how an artist is running <br> T&uacute ves como un artista est&aacute corriendo","{""Q0"":4}","practice","93859","survey-likert","5","50082","0.0-3.0-0.2","58","1","2022-11-29 21:32:29","2df368f4e41f066fd1c82c297b4a1108","187.208.120.130","Mozilla/5.0 (Windows NT 10.0; Win64; x64) AppleWebKit/537.36 (KHTML, like Gecko) Chrome/107.0.0.0 Safari/537.36","WebKit","Chrome","107.0.0.0","Windows","10.0","[0]","4","","",""
"8983","You drop a rock on a phone <br> T&uacute tiras una piedra a un tel&eacutefono","{""Q0"":4}","practice","93859","survey-likert","6","59071","0.0-3.0-0.3","58","1","2022-11-29 21:32:29","2df368f4e41f066fd1c82c297b4a1108","187.208.120.130","Mozilla/5.0 (Windows NT 10.0; Win64; x64) AppleWebKit/537.36 (KHTML, like Gecko) Chrome/107.0.0.0 Safari/537.36","WebKit","Chrome","107.0.0.0","Windows","10.0","[0]","4","","",""
"13734","You see how a teacher is drawing a picture <br> T&uacute ves como un maestro pinta una foto","{""Q0"":3}","practice","93859","survey-likert","7","72812","0.0-3.0-0.4","58","1","2022-11-29 21:32:29","2df368f4e41f066fd1c82c297b4a1108","187.208.120.130","Mozilla/5.0 (Windows NT 10.0; Win64; x64) AppleWebKit/537.36 (KHTML, like Gecko) Chrome/107.0.0.0 Safari/537.36","WebKit","Chrome","107.0.0.0","Windows","10.0","[0]","3","","",""
"13955","You see how a tiger is playing with a goose <br> T&uacute ves como un le&oacuten come una pizza","{""Q0"":0}","practice","93859","survey-likert","8","86770","0.0-3.0-0.5","58","1","2022-11-29 21:32:29","2df368f4e41f066fd1c82c297b4a1108","187.208.120.130","Mozilla/5.0 (Windows NT 10.0; Win64; x64) AppleWebKit/537.36 (KHTML, like Gecko) Chrome/107.0.0.0 Safari/537.36","WebKit","Chrome","107.0.0.0","Windows","10.0","[0]","0","","",""
"9575","You see how a tiger is playing with a goose <br> T&uacute ves como un le&oacuten come una pizza","{""Q0"":""Ves a un tigre jugar con un ganso""}","practice_low_rate","93859","survey-text","9","96355","0.0-3.0-1.5-0.5","58","1","2022-11-29 21:32:29","2df368f4e41f066fd1c82c297b4a1108","187.208.120.130","Mozilla/5.0 (Windows NT 10.0; Win64; x64) AppleWebKit/537.36 (KHTML, like Gecko) Chrome/107.0.0.0 Safari/537.36","WebKit","Chrome","107.0.0.0","Windows","10.0","","","5","",""
"2082","<p style=""font-size:20px;"">You have now completed the practice session! </p>
        <p style=""font-size:20px;"">You will now move on to the main experiment. </p>
        <p style=""font-size:20px;"">Please click the button below to continue. </p>","0","movetoexp","93859","html-button-response","10","98439","0.0-4.0","58","1","2022-11-29 21:32:29","2df368f4e41f066fd1c82c297b4a1108","187.208.120.130","Mozilla/5.0 (Windows NT 10.0; Win64; x64) AppleWebKit/537.36 (KHTML, like Gecko) Chrome/107.0.0.0 Safari/537.36","WebKit","Chrome","107.0.0.0","Windows","10.0","","","","",""
"16811","You see how a cook is taking a knife <br> T&uacute ves como un cocinero est&aacute agarrando un cuchillo","{""Q0"":4}","trial","93859","survey-likert","11","115252","0.0-5.0-0.0","58","1","2022-11-29 21:32:29","2df368f4e41f066fd1c82c297b4a1108","187.208.120.130","Mozilla/5.0 (Windows NT 10.0; Win64; x64) AppleWebKit/537.36 (KHTML, like Gecko) Chrome/107.0.0.0 Safari/537.36","WebKit","Chrome","107.0.0.0","Windows","10.0","[0]","","71","4",""
"14598","You see how a donkey is drinking water <br> T&uacute ves como un burro est&aacute bebiendo agua","{""Q0"":4}","trial","93859","survey-likert","12","129858","0.0-5.0-0.1","58","1","2022-11-29 21:32:29","2df368f4e41f066fd1c82c297b4a1108","187.208.120.130","Mozilla/5.0 (Windows NT 10.0; Win64; x64) AppleWebKit/537.36 (KHTML, like Gecko) Chrome/107.0.0.0 Safari/537.36","WebKit","Chrome","107.0.0.0","Windows","10.0","[0]","","45","4",""
"9969","You drop a bowling ball on a light bulb <br> T&uacute tiras una bola de boliche a una bombilla","{""Q0"":3}","trial","93859","survey-likert","13","139835","0.0-5.0-0.2","58","1","2022-11-29 21:32:29","2df368f4e41f066fd1c82c297b4a1108","187.208.120.130","Mozilla/5.0 (Windows NT 10.0; Win64; x64) AppleWebKit/537.36 (KHTML, like Gecko) Chrome/107.0.0.0 Safari/537.36","WebKit","Chrome","107.0.0.0","Windows","10.0","[0]","","14","3",""
"25507","You drop a bowling ball on a wine glass <br> T&uacute tiras una bola de boliche a una copa de vino","{""Q0"":4}","trial","93859","survey-likert","14","165350","0.0-5.0-0.3","58","1","2022-11-29 21:32:29","2df368f4e41f066fd1c82c297b4a1108","187.208.120.130","Mozilla/5.0 (Windows NT 10.0; Win64; x64) AppleWebKit/537.36 (KHTML, like Gecko) Chrome/107.0.0.0 Safari/537.36","WebKit","Chrome","107.0.0.0","Windows","10.0","[0]","","5","4",""
"8297","You see how a police officer is talking on the phone <br> T&uacute ves como un polic&iacutea est&aacute hablando por el tel&eacutefono","{""Q0"":4}","trial","93859","survey-likert","15","173655","0.0-5.0-0.4","58","1","2022-11-29 21:32:29","2df368f4e41f066fd1c82c297b4a1108","187.208.120.130","Mozilla/5.0 (Windows NT 10.0; Win64; x64) AppleWebKit/537.36 (KHTML, like Gecko) Chrome/107.0.0.0 Safari/537.36","WebKit","Chrome","107.0.0.0","Windows","10.0","[0]","","62","4",""
"6682","You see how a student is writing on a board <br> T&uacute ves como un estudiante est&aacute escribiendo en la pizarra","{""Q0"":4}","trial","93859","survey-likert","16","180344","0.0-5.0-0.5","58","1","2022-11-29 21:32:29","2df368f4e41f066fd1c82c297b4a1108","187.208.120.130","Mozilla/5.0 (Windows NT 10.0; Win64; x64) AppleWebKit/537.36 (KHTML, like Gecko) Chrome/107.0.0.0 Safari/537.36","WebKit","Chrome","107.0.0.0","Windows","10.0","[0]","","50","4",""
"4622","You see how a pilot is reading a book <br> T&uacute ves como un piloto est&aacute leyendo un libro","{""Q0"":4}","trial","93859","survey-likert","17","184972","0.0-5.0-0.6","58","1","2022-11-29 21:32:29","2df368f4e41f066fd1c82c297b4a1108","187.208.120.130","Mozilla/5.0 (Windows NT 10.0; Win64; x64) AppleWebKit/537.36 (KHTML, like Gecko) Chrome/107.0.0.0 Safari/537.36","WebKit","Chrome","107.0.0.0","Windows","10.0","[0]","","61","4",""
"6211","You drop a bowling ball on a piece of cake <br> T&uacute tiras una bola de boliche a un trozo de pastel","{""Q0"":4}","trial","93859","survey-likert","18","191189","0.0-5.0-0.7","58","1","2022-11-29 21:32:29","2df368f4e41f066fd1c82c297b4a1108","187.208.120.130","Mozilla/5.0 (Windows NT 10.0; Win64; x64) AppleWebKit/537.36 (KHTML, like Gecko) Chrome/107.0.0.0 Safari/537.36","WebKit","Chrome","107.0.0.0","Windows","10.0","[0]","","2","4",""
"75846","You drop a bowling ball on an iPAD <br> T&uacute tiras una bola de boliche a un iPad","{""Q0"":3}","trial","93859","survey-likert","19","267041","0.0-5.0-0.8","58","1","2022-11-29 21:32:29","2df368f4e41f066fd1c82c297b4a1108","187.208.120.130","Mozilla/5.0 (Windows NT 10.0; Win64; x64) AppleWebKit/537.36 (KHTML, like Gecko) Chrome/107.0.0.0 Safari/537.36","WebKit","Chrome","107.0.0.0","Windows","10.0","[0]","","12","3",""
"7001","You drop a bowling ball on a piece of sushi <br> T&uacute tiras una bola de boliche a un pedazo de sushi","{""Q0"":3}","trial","93859","survey-likert","20","274049","0.0-5.0-0.9","58","1","2022-11-29 21:32:29","2df368f4e41f066fd1c82c297b4a1108","187.208.120.130","Mozilla/5.0 (Windows NT 10.0; Win64; x64) AppleWebKit/537.36 (KHTML, like Gecko) Chrome/107.0.0.0 Safari/537.36","WebKit","Chrome","107.0.0.0","Windows","10.0","[0]","","21","3",""
"7123","You drop a remote on the rug <br> T&uacute tiras un control remoto a la alfombra","{""Q0"":3}","trial","93859","survey-likert","21","281178","0.0-5.0-0.10","58","1","2022-11-29 21:32:29","2df368f4e41f066fd1c82c297b4a1108","187.208.120.130","Mozilla/5.0 (Windows NT 10.0; Win64; x64) AppleWebKit/537.36 (KHTML, like Gecko) Chrome/107.0.0.0 Safari/537.36","WebKit","Chrome","107.0.0.0","Windows","10.0","[0]","","39","3",""
"6872","You drop a cabbage on the table <br> T&uacute tiras una col a la mesa","{""Q0"":3}","trial","93859","survey-likert","22","288056","0.0-5.0-0.11","58","1","2022-11-29 21:32:29","2df368f4e41f066fd1c82c297b4a1108","187.208.120.130","Mozilla/5.0 (Windows NT 10.0; Win64; x64) AppleWebKit/537.36 (KHTML, like Gecko) Chrome/107.0.0.0 Safari/537.36","WebKit","Chrome","107.0.0.0","Windows","10.0","[0]","","35","3",""
"8562","You see how a parrot is eating an apple <br> T&uacute ves como un loro est&aacute comiendo una manzana","{""Q0"":4}","trial","93859","survey-likert","23","296625","0.0-5.0-0.12","58","1","2022-11-29 21:32:29","2df368f4e41f066fd1c82c297b4a1108","187.208.120.130","Mozilla/5.0 (Windows NT 10.0; Win64; x64) AppleWebKit/537.36 (KHTML, like Gecko) Chrome/107.0.0.0 Safari/537.36","WebKit","Chrome","107.0.0.0","Windows","10.0","[0]","","58","4",""
"28959","You see how a boy is peeling a banana <br> T&uacute ves como un ni&ntildeo est&aacute pelando una banana","{""Q0"":4}","trial","93859","survey-likert","24","325591","0.0-5.0-0.13","58","1","2022-11-29 21:32:29","2df368f4e41f066fd1c82c297b4a1108","187.208.120.130","Mozilla/5.0 (Windows NT 10.0; Win64; x64) AppleWebKit/537.36 (KHTML, like Gecko) Chrome/107.0.0.0 Safari/537.36","WebKit","Chrome","107.0.0.0","Windows","10.0","[0]","","30","4",""
"7550","You see how a thief is stealing a wallet <br> T&uacute ves como un ladr&oacuten est&aacute robando una billetera","{""Q0"":4}","trial","93859","survey-likert","25","333148","0.0-5.0-0.14","58","1","2022-11-29 21:32:29","2df368f4e41f066fd1c82c297b4a1108","187.208.120.130","Mozilla/5.0 (Windows NT 10.0; Win64; x64) AppleWebKit/537.36 (KHTML, like Gecko) Chrome/107.0.0.0 Safari/537.36","WebKit","Chrome","107.0.0.0","Windows","10.0","[0]","","68","4",""
"38461","You drop a bowling ball on a cracker <br> T&uacute tiras una bola de boliche a una galleta","{""Q0"":4}","trial","93859","survey-likert","26","371616","0.0-5.0-0.15","58","1","2022-11-29 21:32:29","2df368f4e41f066fd1c82c297b4a1108","187.208.120.130","Mozilla/5.0 (Windows NT 10.0; Win64; x64) AppleWebKit/537.36 (KHTML, like Gecko) Chrome/107.0.0.0 Safari/537.36","WebKit","Chrome","107.0.0.0","Windows","10.0","[0]","","4","4",""
"80707","You see how a musician is playing a guitar <br> T&uacute ves como un m&uacutesico est&aacute tocando la guitarra","{""Q0"":4}","trial","93859","survey-likert","27","452330","0.0-5.0-0.16","58","1","2022-11-29 21:32:29","2df368f4e41f066fd1c82c297b4a1108","187.208.120.130","Mozilla/5.0 (Windows NT 10.0; Win64; x64) AppleWebKit/537.36 (KHTML, like Gecko) Chrome/107.0.0.0 Safari/537.36","WebKit","Chrome","107.0.0.0","Windows","10.0","[0]","","27","4",""
"9270","You see how a kitten is playing in the sandbox <br> T&uacute ves como un gatito est&aacute jugando en la caja de arena","{""Q0"":4}","trial","93859","survey-likert","28","461607","0.0-5.0-0.17","58","1","2022-11-29 21:32:29","2df368f4e41f066fd1c82c297b4a1108","187.208.120.130","Mozilla/5.0 (Windows NT 10.0; Win64; x64) AppleWebKit/537.36 (KHTML, like Gecko) Chrome/107.0.0.0 Safari/537.36","WebKit","Chrome","107.0.0.0","Windows","10.0","[0]","","52","4",""
"6120","You see how a man is shaving his beard <br> T&uacute ves como un hombre se est&aacute afeitando la barba","{""Q0"":4}","trial","93859","survey-likert","29","467732","0.0-5.0-0.18","58","1","2022-11-29 21:32:29","2df368f4e41f066fd1c82c297b4a1108","187.208.120.130","Mozilla/5.0 (Windows NT 10.0; Win64; x64) AppleWebKit/537.36 (KHTML, like Gecko) Chrome/107.0.0.0 Safari/537.36","WebKit","Chrome","107.0.0.0","Windows","10.0","[0]","","43","4",""
"10849","You see how a cat is drinking water from a bowl <br> T&uacute ves como un gato est&aacute bebiendo agua de un cuenco","{""Q0"":4}","trial","93859","survey-likert","30","478589","0.0-5.0-0.19","58","1","2022-11-29 21:32:29","2df368f4e41f066fd1c82c297b4a1108","187.208.120.130","Mozilla/5.0 (Windows NT 10.0; Win64; x64) AppleWebKit/537.36 (KHTML, like Gecko) Chrome/107.0.0.0 Safari/537.36","WebKit","Chrome","107.0.0.0","Windows","10.0","[0]","","28","4",""
"11921","You drop a bowling ball on a strawberry <br> T&uacute tiras una bola de boliche a una fresa","{""Q0"":3}","trial","93859","survey-likert","31","490516","0.0-5.0-0.20","58","1","2022-11-29 21:32:29","2df368f4e41f066fd1c82c297b4a1108","187.208.120.130","Mozilla/5.0 (Windows NT 10.0; Win64; x64) AppleWebKit/537.36 (KHTML, like Gecko) Chrome/107.0.0.0 Safari/537.36","WebKit","Chrome","107.0.0.0","Windows","10.0","[0]","","20","3",""
"43221","You drop a towel on the TV <br> T&uacute tiras una toalla a la televisi&oacuten","{""Q0"":3}","trial","93859","survey-likert","32","533745","0.0-5.0-0.21","58","1","2022-11-29 21:32:29","2df368f4e41f066fd1c82c297b4a1108","187.208.120.130","Mozilla/5.0 (Windows NT 10.0; Win64; x64) AppleWebKit/537.36 (KHTML, like Gecko) Chrome/107.0.0.0 Safari/537.36","WebKit","Chrome","107.0.0.0","Windows","10.0","[0]","","53","3",""
"44753","You drop a needle on the mouse pad <br> T&uacute tiras una aguja a la alfombrilla para el rat&oacuten","{""Q0"":1}","trial","93859","survey-likert","33","578505","0.0-5.0-0.22","58","1","2022-11-29 21:32:29","2df368f4e41f066fd1c82c297b4a1108","187.208.120.130","Mozilla/5.0 (Windows NT 10.0; Win64; x64) AppleWebKit/537.36 (KHTML, like Gecko) Chrome/107.0.0.0 Safari/537.36","WebKit","Chrome","107.0.0.0","Windows","10.0","[0]","","42","1",""
"17989","You drop a needle on the mouse pad <br> T&uacute tiras una aguja a la alfombrilla para el rat&oacuten","{""Q0"":""Dejas caer una aguja al mouse pad""}","low_rate","93859","survey-text","34","596502","0.0-5.0-1.22-0.22","58","1","2022-11-29 21:32:29","2df368f4e41f066fd1c82c297b4a1108","187.208.120.130","Mozilla/5.0 (Windows NT 10.0; Win64; x64) AppleWebKit/537.36 (KHTML, like Gecko) Chrome/107.0.0.0 Safari/537.36","WebKit","Chrome","107.0.0.0","Windows","10.0","","","42","",""
"27322","You drop a bowling ball on an egg <br> T&uacute tiras una bola de boliche a un huevo","{""Q0"":3}","trial","93859","survey-likert","35","623827","0.0-5.0-0.23","58","1","2022-11-29 21:32:29","2df368f4e41f066fd1c82c297b4a1108","187.208.120.130","Mozilla/5.0 (Windows NT 10.0; Win64; x64) AppleWebKit/537.36 (KHTML, like Gecko) Chrome/107.0.0.0 Safari/537.36","WebKit","Chrome","107.0.0.0","Windows","10.0","[0]","","6","3",""
"30137","You drop a fork on the plate <br> T&uacute tiras un tenedor al plato","{""Q0"":3}","trial","93859","survey-likert","36","653973","0.0-5.0-0.24","58","1","2022-11-29 21:32:29","2df368f4e41f066fd1c82c297b4a1108","187.208.120.130","Mozilla/5.0 (Windows NT 10.0; Win64; x64) AppleWebKit/537.36 (KHTML, like Gecko) Chrome/107.0.0.0 Safari/537.36","WebKit","Chrome","107.0.0.0","Windows","10.0","[0]","","26","3",""
"8031","You see how a zebra is playing with a horse <br> T&uacute ves como una cebra est&aacute jugando con un caballo","{""Q0"":4}","trial","93859","survey-likert","37","662009","0.0-5.0-0.25","58","1","2022-11-29 21:32:29","2df368f4e41f066fd1c82c297b4a1108","187.208.120.130","Mozilla/5.0 (Windows NT 10.0; Win64; x64) AppleWebKit/537.36 (KHTML, like Gecko) Chrome/107.0.0.0 Safari/537.36","WebKit","Chrome","107.0.0.0","Windows","10.0","[0]","","66","4",""
"9938","You see how a mouse is eating cheese <br> T&uacute ves como el rat&oacuten est&aacute comiendo queso","{""Q0"":1}","trial","93859","survey-likert","38","671952","0.0-5.0-0.26","58","1","2022-11-29 21:32:29","2df368f4e41f066fd1c82c297b4a1108","187.208.120.130","Mozilla/5.0 (Windows NT 10.0; Win64; x64) AppleWebKit/537.36 (KHTML, like Gecko) Chrome/107.0.0.0 Safari/537.36","WebKit","Chrome","107.0.0.0","Windows","10.0","[0]","","56","1",""
"12241","You see how a mouse is eating cheese <br> T&uacute ves como el rat&oacuten est&aacute comiendo queso","{""Q0"":""Tú ves como un ratón come queso""}","low_rate","93859","survey-text","39","684199","0.0-5.0-1.26-0.26","58","1","2022-11-29 21:32:29","2df368f4e41f066fd1c82c297b4a1108","187.208.120.130","Mozilla/5.0 (Windows NT 10.0; Win64; x64) AppleWebKit/537.36 (KHTML, like Gecko) Chrome/107.0.0.0 Safari/537.36","WebKit","Chrome","107.0.0.0","Windows","10.0","","","56","",""
"11462","You drop a bowling ball on a ceramic plate <br> T&uacute tiras una bola de boliche a un plato de cer&aacutemica","{""Q0"":3}","trial","93859","survey-likert","40","695665","0.0-5.0-0.27","58","1","2022-11-29 21:32:29","2df368f4e41f066fd1c82c297b4a1108","187.208.120.130","Mozilla/5.0 (Windows NT 10.0; Win64; x64) AppleWebKit/537.36 (KHTML, like Gecko) Chrome/107.0.0.0 Safari/537.36","WebKit","Chrome","107.0.0.0","Windows","10.0","[0]","","19","3",""
"11377","You see how an elephant is eating a watermelon <br> T&uacute ves como un elefante est&aacute comiendo una sand&iacutea","{""Q0"":3}","trial","93859","survey-likert","41","707049","0.0-5.0-0.28","58","1","2022-11-29 21:32:29","2df368f4e41f066fd1c82c297b4a1108","187.208.120.130","Mozilla/5.0 (Windows NT 10.0; Win64; x64) AppleWebKit/537.36 (KHTML, like Gecko) Chrome/107.0.0.0 Safari/537.36","WebKit","Chrome","107.0.0.0","Windows","10.0","[0]","","31","3",""
"167956","You drop a bowling ball on a mirror <br> T&uacute tiras una bola de boliche a un espejo","{""Q0"":3}","trial","93859","survey-likert","42","875011","0.0-5.0-0.29","58","1","2022-11-29 21:32:29","2df368f4e41f066fd1c82c297b4a1108","187.208.120.130","Mozilla/5.0 (Windows NT 10.0; Win64; x64) AppleWebKit/537.36 (KHTML, like Gecko) Chrome/107.0.0.0 Safari/537.36","WebKit","Chrome","107.0.0.0","Windows","10.0","[0]","","15","3",""
"11635","You see how an astronaut is putting on a space suit <br> T&uacute ves como un astronauta se est&aacute poniendo su traje espacial","{""Q0"":3}","trial","93859","survey-likert","43","886654","0.0-5.0-0.30","58","1","2022-11-29 21:32:29","2df368f4e41f066fd1c82c297b4a1108","187.208.120.130","Mozilla/5.0 (Windows NT 10.0; Win64; x64) AppleWebKit/537.36 (KHTML, like Gecko) Chrome/107.0.0.0 Safari/537.36","WebKit","Chrome","107.0.0.0","Windows","10.0","[0]","","33","3",""
"6626","You see how a postman is driving a car <br> T&uacute ves como un cartero est&aacute conduciendo un coche","{""Q0"":3}","trial","93859","survey-likert","44","893288","0.0-5.0-0.31","58","1","2022-11-29 21:32:29","2df368f4e41f066fd1c82c297b4a1108","187.208.120.130","Mozilla/5.0 (Windows NT 10.0; Win64; x64) AppleWebKit/537.36 (KHTML, like Gecko) Chrome/107.0.0.0 Safari/537.36","WebKit","Chrome","107.0.0.0","Windows","10.0","[0]","","32","3",""
"4000","You drop a toothbrush on the sponge <br> T&uacute tiras un cepillo de dientes en la esponja","{""Q0"":3}","trial","93859","survey-likert","45","897291","0.0-5.0-0.32","58","1","2022-11-29 21:32:29","2df368f4e41f066fd1c82c297b4a1108","187.208.120.130","Mozilla/5.0 (Windows NT 10.0; Win64; x64) AppleWebKit/537.36 (KHTML, like Gecko) Chrome/107.0.0.0 Safari/537.36","WebKit","Chrome","107.0.0.0","Windows","10.0","[0]","","25","3",""
"4273","You drop a bowling ball on a porcelain figure <br> T&uacute tiras una bola de boliche a una figura de porcelana","{""Q0"":3}","trial","93859","survey-likert","46","901572","0.0-5.0-0.33","58","1","2022-11-29 21:32:29","2df368f4e41f066fd1c82c297b4a1108","187.208.120.130","Mozilla/5.0 (Windows NT 10.0; Win64; x64) AppleWebKit/537.36 (KHTML, like Gecko) Chrome/107.0.0.0 Safari/537.36","WebKit","Chrome","107.0.0.0","Windows","10.0","[0]","","1","3",""
"4733","You drop a bowling ball on a hat <br> T&uacute tiras una bola de boliche a una gorra","{""Q0"":3}","trial","93859","survey-likert","47","906312","0.0-5.0-0.34","58","1","2022-11-29 21:32:29","2df368f4e41f066fd1c82c297b4a1108","187.208.120.130","Mozilla/5.0 (Windows NT 10.0; Win64; x64) AppleWebKit/537.36 (KHTML, like Gecko) Chrome/107.0.0.0 Safari/537.36","WebKit","Chrome","107.0.0.0","Windows","10.0","[0]","","10","3",""
"12356","You see how an old man is hammering a nail <br> T&uacute ves como un hombre anciano est&aacute martillando un clavo","{""Q0"":3}","trial","93859","survey-likert","48","918673","0.0-5.0-0.35","58","1","2022-11-29 21:32:29","2df368f4e41f066fd1c82c297b4a1108","187.208.120.130","Mozilla/5.0 (Windows NT 10.0; Win64; x64) AppleWebKit/537.36 (KHTML, like Gecko) Chrome/107.0.0.0 Safari/537.36","WebKit","Chrome","107.0.0.0","Windows","10.0","[0]","","29","3",""
"4808","You see how a photographer is taking a photo of a lion <br> T&uacute ves como un fot&oacutegrafo est&aacute tomando una foto de un le&oacuten","{""Q0"":3}","trial","93859","survey-likert","49","923489","0.0-5.0-0.36","58","1","2022-11-29 21:32:29","2df368f4e41f066fd1c82c297b4a1108","187.208.120.130","Mozilla/5.0 (Windows NT 10.0; Win64; x64) AppleWebKit/537.36 (KHTML, like Gecko) Chrome/107.0.0.0 Safari/537.36","WebKit","Chrome","107.0.0.0","Windows","10.0","[0]","","72","3",""
"4443","You drop a bowling ball on a tile <br> T&uacute tiras una bola de boliche a una baldosa","{""Q0"":3}","trial","93859","survey-likert","50","927939","0.0-5.0-0.37","58","1","2022-11-29 21:32:29","2df368f4e41f066fd1c82c297b4a1108","187.208.120.130","Mozilla/5.0 (Windows NT 10.0; Win64; x64) AppleWebKit/537.36 (KHTML, like Gecko) Chrome/107.0.0.0 Safari/537.36","WebKit","Chrome","107.0.0.0","Windows","10.0","[0]","","22","3",""
"47752","You drop a bowling ball on an empty can of beer <br> T&uacute tiras una bola de boliche a una lata de cerveza vac&iacutea","{""Q0"":3}","trial","93859","survey-likert","51","975700","0.0-5.0-0.38","58","1","2022-11-29 21:32:29","2df368f4e41f066fd1c82c297b4a1108","187.208.120.130","Mozilla/5.0 (Windows NT 10.0; Win64; x64) AppleWebKit/537.36 (KHTML, like Gecko) Chrome/107.0.0.0 Safari/537.36","WebKit","Chrome","107.0.0.0","Windows","10.0","[0]","","3","3",""
"7416","You drop a bowling ball on a paper cup <br> T&uacute tiras una bola de boliche a un vaso de papel","{""Q0"":3}","trial","93859","survey-likert","52","983122","0.0-5.0-0.39","58","1","2022-11-29 21:32:29","2df368f4e41f066fd1c82c297b4a1108","187.208.120.130","Mozilla/5.0 (Windows NT 10.0; Win64; x64) AppleWebKit/537.36 (KHTML, like Gecko) Chrome/107.0.0.0 Safari/537.36","WebKit","Chrome","107.0.0.0","Windows","10.0","[0]","","24","3",""
"11307","You drop a thermometer on the box <br> T&uacute tiras un term&oacutemetro a la caja","{""Q0"":3}","trial","93859","survey-likert","53","994434","0.0-5.0-0.40","58","1","2022-11-29 21:32:29","2df368f4e41f066fd1c82c297b4a1108","187.208.120.130","Mozilla/5.0 (Windows NT 10.0; Win64; x64) AppleWebKit/537.36 (KHTML, like Gecko) Chrome/107.0.0.0 Safari/537.36","WebKit","Chrome","107.0.0.0","Windows","10.0","[0]","","70","3",""
"6113","You see how an actress is taking a microphone <br> T&uacute ves como una actriz est&aacute agarrando el micr&oacutefono","{""Q0"":3}","trial","93859","survey-likert","54","1000549","0.0-5.0-0.41","58","1","2022-11-29 21:32:29","2df368f4e41f066fd1c82c297b4a1108","187.208.120.130","Mozilla/5.0 (Windows NT 10.0; Win64; x64) AppleWebKit/537.36 (KHTML, like Gecko) Chrome/107.0.0.0 Safari/537.36","WebKit","Chrome","107.0.0.0","Windows","10.0","[0]","","51","3",""
"19005","You drop a cushion on the magazine <br> T&uacute tiras un coj&iacuten a la revista","{""Q0"":3}","trial","93859","survey-likert","55","1019560","0.0-5.0-0.42","58","1","2022-11-29 21:32:29","2df368f4e41f066fd1c82c297b4a1108","187.208.120.130","Mozilla/5.0 (Windows NT 10.0; Win64; x64) AppleWebKit/537.36 (KHTML, like Gecko) Chrome/107.0.0.0 Safari/537.36","WebKit","Chrome","107.0.0.0","Windows","10.0","[0]","","38","3",""
"6506","You drop a bowling ball on a donut <br> T&uacute tiras una bola de boliche a una rosquilla","{""Q0"":3}","trial","93859","survey-likert","56","1026074","0.0-5.0-0.43","58","1","2022-11-29 21:32:29","2df368f4e41f066fd1c82c297b4a1108","187.208.120.130","Mozilla/5.0 (Windows NT 10.0; Win64; x64) AppleWebKit/537.36 (KHTML, like Gecko) Chrome/107.0.0.0 Safari/537.36","WebKit","Chrome","107.0.0.0","Windows","10.0","[0]","","17","3",""
"4601","You drop a bowling ball on an iPhone <br> T&uacute tiras una bola de boliche a un iPhone","{""Q0"":3}","trial","93859","survey-likert","57","1030682","0.0-5.0-0.44","58","1","2022-11-29 21:32:29","2df368f4e41f066fd1c82c297b4a1108","187.208.120.130","Mozilla/5.0 (Windows NT 10.0; Win64; x64) AppleWebKit/537.36 (KHTML, like Gecko) Chrome/107.0.0.0 Safari/537.36","WebKit","Chrome","107.0.0.0","Windows","10.0","[0]","","13","3",""
"5901","You see how a puppy is playing with a ball <br> T&uacute ves como un cachorro est&aacute jugando con una pelota","{""Q0"":3}","trial","93859","survey-likert","58","1036589","0.0-5.0-0.45","58","1","2022-11-29 21:32:29","2df368f4e41f066fd1c82c297b4a1108","187.208.120.130","Mozilla/5.0 (Windows NT 10.0; Win64; x64) AppleWebKit/537.36 (KHTML, like Gecko) Chrome/107.0.0.0 Safari/537.36","WebKit","Chrome","107.0.0.0","Windows","10.0","[0]","","34","3",""
"7084","You see how a nurse is taking a syringe <br> T&uacute ves como una enfermera est&aacute agarrando una jeringuilla","{""Q0"":3}","trial","93859","survey-likert","59","1043680","0.0-5.0-0.46","58","1","2022-11-29 21:32:29","2df368f4e41f066fd1c82c297b4a1108","187.208.120.130","Mozilla/5.0 (Windows NT 10.0; Win64; x64) AppleWebKit/537.36 (KHTML, like Gecko) Chrome/107.0.0.0 Safari/537.36","WebKit","Chrome","107.0.0.0","Windows","10.0","[0]","","48","3",""
"5379","You drop a ring on the newspaper <br> T&uacute tiras un anillo al peri&oacutedico","{""Q0"":3}","trial","93859","survey-likert","60","1049066","0.0-5.0-0.47","58","1","2022-11-29 21:32:29","2df368f4e41f066fd1c82c297b4a1108","187.208.120.130","Mozilla/5.0 (Windows NT 10.0; Win64; x64) AppleWebKit/537.36 (KHTML, like Gecko) Chrome/107.0.0.0 Safari/537.36","WebKit","Chrome","107.0.0.0","Windows","10.0","[0]","","41","3",""
"6843","You drop a keyboard on the bed <br> T&uacute tiras un teclado a la cama","{""Q0"":4}","trial","93859","survey-likert","61","1055916","0.0-5.0-0.48","58","1","2022-11-29 21:32:29","2df368f4e41f066fd1c82c297b4a1108","187.208.120.130","Mozilla/5.0 (Windows NT 10.0; Win64; x64) AppleWebKit/537.36 (KHTML, like Gecko) Chrome/107.0.0.0 Safari/537.36","WebKit","Chrome","107.0.0.0","Windows","10.0","[0]","","36","4",""
"7553","You see how a president is writing in the notebook <br> T&uacute ves como un presidente est&aacute escribiendo en la libreta","{""Q0"":4}","trial","93859","survey-likert","62","1063478","0.0-5.0-0.49","58","1","2022-11-29 21:32:29","2df368f4e41f066fd1c82c297b4a1108","187.208.120.130","Mozilla/5.0 (Windows NT 10.0; Win64; x64) AppleWebKit/537.36 (KHTML, like Gecko) Chrome/107.0.0.0 Safari/537.36","WebKit","Chrome","107.0.0.0","Windows","10.0","[0]","","63","4",""
"8504","You see how a man is boiling potatoes <br> T&uacute ves a un hombre est&aacute hirviendo papas","{""Q0"":1}","trial","93859","survey-likert","63","1071990","0.0-5.0-0.50","58","1","2022-11-29 21:32:29","2df368f4e41f066fd1c82c297b4a1108","187.208.120.130","Mozilla/5.0 (Windows NT 10.0; Win64; x64) AppleWebKit/537.36 (KHTML, like Gecko) Chrome/107.0.0.0 Safari/537.36","WebKit","Chrome","107.0.0.0","Windows","10.0","[0]","","46","1",""
"20495","You see how a man is boiling potatoes <br> T&uacute ves a un hombre est&aacute hirviendo papas","{""Q0"":""Tú ves a un hombre hirviendo papas""}","low_rate","93859","survey-text","64","1092492","0.0-5.0-1.50-0.50","58","1","2022-11-29 21:32:29","2df368f4e41f066fd1c82c297b4a1108","187.208.120.130","Mozilla/5.0 (Windows NT 10.0; Win64; x64) AppleWebKit/537.36 (KHTML, like Gecko) Chrome/107.0.0.0 Safari/537.36","WebKit","Chrome","107.0.0.0","Windows","10.0","","","46","",""
"22675","You drop a bowling ball on a chocolate muffin <br> T&uacute tiras una bola de boliche a una magdalena de chocolate","{""Q0"":1}","trial","93859","survey-likert","65","1115170","0.0-5.0-0.51","58","1","2022-11-29 21:32:29","2df368f4e41f066fd1c82c297b4a1108","187.208.120.130","Mozilla/5.0 (Windows NT 10.0; Win64; x64) AppleWebKit/537.36 (KHTML, like Gecko) Chrome/107.0.0.0 Safari/537.36","WebKit","Chrome","107.0.0.0","Windows","10.0","[0]","","16","1",""
"21707","You drop a bowling ball on a chocolate muffin <br> T&uacute tiras una bola de boliche a una magdalena de chocolate","{""Q0"":""Dejas caer una bola de boliche a un muffin de chocolate""}","low_rate","93859","survey-text","66","1136882","0.0-5.0-1.51-0.51","58","1","2022-11-29 21:32:29","2df368f4e41f066fd1c82c297b4a1108","187.208.120.130","Mozilla/5.0 (Windows NT 10.0; Win64; x64) AppleWebKit/537.36 (KHTML, like Gecko) Chrome/107.0.0.0 Safari/537.36","WebKit","Chrome","107.0.0.0","Windows","10.0","","","16","",""
"5876","You see how a giraffe is playing with a zebra <br> T&uacute ves como una jirafa est&aacute jugando con una cebra","{""Q0"":4}","trial","93859","survey-likert","67","1142762","0.0-5.0-0.52","58","1","2022-11-29 21:32:29","2df368f4e41f066fd1c82c297b4a1108","187.208.120.130","Mozilla/5.0 (Windows NT 10.0; Win64; x64) AppleWebKit/537.36 (KHTML, like Gecko) Chrome/107.0.0.0 Safari/537.36","WebKit","Chrome","107.0.0.0","Windows","10.0","[0]","","65","4",""
"78914","You see how a doctor is taking a stethoscope <br> T&uacute ves como un doctor est&aacute agarrando un estetoscopio","{""Q0"":4}","trial","93859","survey-likert","68","1221689","0.0-5.0-0.53","58","1","2022-11-29 21:32:29","2df368f4e41f066fd1c82c297b4a1108","187.208.120.130","Mozilla/5.0 (Windows NT 10.0; Win64; x64) AppleWebKit/537.36 (KHTML, like Gecko) Chrome/107.0.0.0 Safari/537.36","WebKit","Chrome","107.0.0.0","Windows","10.0","[0]","","49","4",""
"22402","You see how a horse is chewing hay <br> T&uacute ves como un caballo est&aacute masticando el heno","{""Q0"":3}","trial","93859","survey-likert","69","1244098","0.0-5.0-0.54","58","1","2022-11-29 21:32:29","2df368f4e41f066fd1c82c297b4a1108","187.208.120.130","Mozilla/5.0 (Windows NT 10.0; Win64; x64) AppleWebKit/537.36 (KHTML, like Gecko) Chrome/107.0.0.0 Safari/537.36","WebKit","Chrome","107.0.0.0","Windows","10.0","[0]","","55","3",""
"6756","You drop a bowling ball on a tomato <br> T&uacute tiras una bola de boliche a un tomate","{""Q0"":3}","trial","93859","survey-likert","70","1250863","0.0-5.0-0.55","58","1","2022-11-29 21:32:29","2df368f4e41f066fd1c82c297b4a1108","187.208.120.130","Mozilla/5.0 (Windows NT 10.0; Win64; x64) AppleWebKit/537.36 (KHTML, like Gecko) Chrome/107.0.0.0 Safari/537.36","WebKit","Chrome","107.0.0.0","Windows","10.0","[0]","","23","3",""
"21977","You see how a woman is paying with a debit card <br> T&uacute ves como una mujer est&aacute pagando con una tarjeta de d&eacutebito","{""Q0"":4}","trial","93859","survey-likert","71","1272847","0.0-5.0-0.56","58","1","2022-11-29 21:32:29","2df368f4e41f066fd1c82c297b4a1108","187.208.120.130","Mozilla/5.0 (Windows NT 10.0; Win64; x64) AppleWebKit/537.36 (KHTML, like Gecko) Chrome/107.0.0.0 Safari/537.36","WebKit","Chrome","107.0.0.0","Windows","10.0","[0]","","64","4",""
"18891","You drop a bowling ball on glasses <br> T&uacute tiras una bola de boliche a unas gafas","{""Q0"":3}","trial","93859","survey-likert","72","1291748","0.0-5.0-0.57","58","1","2022-11-29 21:32:29","2df368f4e41f066fd1c82c297b4a1108","187.208.120.130","Mozilla/5.0 (Windows NT 10.0; Win64; x64) AppleWebKit/537.36 (KHTML, like Gecko) Chrome/107.0.0.0 Safari/537.36","WebKit","Chrome","107.0.0.0","Windows","10.0","[0]","","9","3",""
"26748","You see how a butterfly is sitting on a flower <br> T&uacute ves como una mariposa est&aacute reposando en una flor","{""Q0"":1}","trial","93859","survey-likert","73","1318502","0.0-5.0-0.58","58","1","2022-11-29 21:32:29","2df368f4e41f066fd1c82c297b4a1108","187.208.120.130","Mozilla/5.0 (Windows NT 10.0; Win64; x64) AppleWebKit/537.36 (KHTML, like Gecko) Chrome/107.0.0.0 Safari/537.36","WebKit","Chrome","107.0.0.0","Windows","10.0","[0]","","59","1",""
"11960","You see how a butterfly is sitting on a flower <br> T&uacute ves como una mariposa est&aacute reposando en una flor","{""Q0"":""Tú ves como una mariposa se posa en una flor ""}","low_rate","93859","survey-text","74","1330472","0.0-5.0-1.58-0.58","58","1","2022-11-29 21:32:29","2df368f4e41f066fd1c82c297b4a1108","187.208.120.130","Mozilla/5.0 (Windows NT 10.0; Win64; x64) AppleWebKit/537.36 (KHTML, like Gecko) Chrome/107.0.0.0 Safari/537.36","WebKit","Chrome","107.0.0.0","Windows","10.0","","","59","",""
"24305","You drop a bowling ball on a blackberry <br> T&uacute tiras una bola de boliche a una mora","{""Q0"":3}","trial","93859","survey-likert","75","1354781","0.0-5.0-0.59","58","1","2022-11-29 21:32:29","2df368f4e41f066fd1c82c297b4a1108","187.208.120.130","Mozilla/5.0 (Windows NT 10.0; Win64; x64) AppleWebKit/537.36 (KHTML, like Gecko) Chrome/107.0.0.0 Safari/537.36","WebKit","Chrome","107.0.0.0","Windows","10.0","[0]","","8","3",""
"10039","You see how an owl is sitting on the branch <br> T&uacute ves como un b&uacuteho est&aacute reposando en una rama","{""Q0"":3}","trial","93859","survey-likert","76","1364829","0.0-5.0-0.60","58","1","2022-11-29 21:32:29","2df368f4e41f066fd1c82c297b4a1108","187.208.120.130","Mozilla/5.0 (Windows NT 10.0; Win64; x64) AppleWebKit/537.36 (KHTML, like Gecko) Chrome/107.0.0.0 Safari/537.36","WebKit","Chrome","107.0.0.0","Windows","10.0","[0]","","69","3",""
"4378","You drop a pencil on the shoe <br> T&uacute tiras un l&aacutepiz al zapato","{""Q0"":3}","trial","93859","survey-likert","77","1369215","0.0-5.0-0.61","58","1","2022-11-29 21:32:29","2df368f4e41f066fd1c82c297b4a1108","187.208.120.130","Mozilla/5.0 (Windows NT 10.0; Win64; x64) AppleWebKit/537.36 (KHTML, like Gecko) Chrome/107.0.0.0 Safari/537.36","WebKit","Chrome","107.0.0.0","Windows","10.0","[0]","","40","3",""
"8095","You see how a hairdresser is taking scissors <br> T&uacute ves como una peluquera est&aacute agarrando las tijeras","{""Q0"":3}","trial","93859","survey-likert","78","1377320","0.0-5.0-0.62","58","1","2022-11-29 21:32:29","2df368f4e41f066fd1c82c297b4a1108","187.208.120.130","Mozilla/5.0 (Windows NT 10.0; Win64; x64) AppleWebKit/537.36 (KHTML, like Gecko) Chrome/107.0.0.0 Safari/537.36","WebKit","Chrome","107.0.0.0","Windows","10.0","[0]","","60","3",""
"5886","You see how a dentist is drinking a can of cola <br> T&uacute ves como un dentista est&aacute bebiendo una lata de cola","{""Q0"":4}","trial","93859","survey-likert","79","1383212","0.0-5.0-0.63","58","1","2022-11-29 21:32:29","2df368f4e41f066fd1c82c297b4a1108","187.208.120.130","Mozilla/5.0 (Windows NT 10.0; Win64; x64) AppleWebKit/537.36 (KHTML, like Gecko) Chrome/107.0.0.0 Safari/537.36","WebKit","Chrome","107.0.0.0","Windows","10.0","[0]","","47","4",""
"23147","You see how a panda is resting on a tree <br> T&uacute ves como un panda est&aacute descansando en un &aacuterbol","{""Q0"":4}","trial","93859","survey-likert","80","1406366","0.0-5.0-0.64","58","1","2022-11-29 21:32:29","2df368f4e41f066fd1c82c297b4a1108","187.208.120.130","Mozilla/5.0 (Windows NT 10.0; Win64; x64) AppleWebKit/537.36 (KHTML, like Gecko) Chrome/107.0.0.0 Safari/537.36","WebKit","Chrome","107.0.0.0","Windows","10.0","[0]","","57","4",""
"7981","You see how a teenage girl is playing the piano <br> T&uacute ves como una ni&ntildea adolescente est&aacute tocando el piano","{""Q0"":3}","trial","93859","survey-likert","81","1414356","0.0-5.0-0.65","58","1","2022-11-29 21:32:29","2df368f4e41f066fd1c82c297b4a1108","187.208.120.130","Mozilla/5.0 (Windows NT 10.0; Win64; x64) AppleWebKit/537.36 (KHTML, like Gecko) Chrome/107.0.0.0 Safari/537.36","WebKit","Chrome","107.0.0.0","Windows","10.0","[0]","","54","3",""
"7404","You drop a watch on the laptop <br> T&uacute tiras un reloj al port&aacutetil","{""Q0"":3}","trial","93859","survey-likert","82","1421769","0.0-5.0-0.66","58","1","2022-11-29 21:32:29","2df368f4e41f066fd1c82c297b4a1108","187.208.120.130","Mozilla/5.0 (Windows NT 10.0; Win64; x64) AppleWebKit/537.36 (KHTML, like Gecko) Chrome/107.0.0.0 Safari/537.36","WebKit","Chrome","107.0.0.0","Windows","10.0","[0]","","37","3",""
"7816","You drop a bowling ball on a chocolate ice-cream <br> T&uacute tiras una bola de boliche a un helado de chocolate","{""Q0"":3}","trial","93859","survey-likert","83","1429591","0.0-5.0-0.67","58","1","2022-11-29 21:32:29","2df368f4e41f066fd1c82c297b4a1108","187.208.120.130","Mozilla/5.0 (Windows NT 10.0; Win64; x64) AppleWebKit/537.36 (KHTML, like Gecko) Chrome/107.0.0.0 Safari/537.36","WebKit","Chrome","107.0.0.0","Windows","10.0","[0]","","11","3",""
"13592","You drop a bowling ball on an egg flan <br> T&uacute tiras una bola de boliche a un flan","{""Q0"":4}","trial","93859","survey-likert","84","1443192","0.0-5.0-0.68","58","1","2022-11-29 21:32:29","2df368f4e41f066fd1c82c297b4a1108","187.208.120.130","Mozilla/5.0 (Windows NT 10.0; Win64; x64) AppleWebKit/537.36 (KHTML, like Gecko) Chrome/107.0.0.0 Safari/537.36","WebKit","Chrome","107.0.0.0","Windows","10.0","[0]","","7","4",""
"5402","You see how a man is playing with a cat <br> T&uacute ves como un hombre est&aacute jugando con un gato","{""Q0"":4}","trial","93859","survey-likert","85","1448604","0.0-5.0-0.69","58","1","2022-11-29 21:32:29","2df368f4e41f066fd1c82c297b4a1108","187.208.120.130","Mozilla/5.0 (Windows NT 10.0; Win64; x64) AppleWebKit/537.36 (KHTML, like Gecko) Chrome/107.0.0.0 Safari/537.36","WebKit","Chrome","107.0.0.0","Windows","10.0","[0]","","67","4",""
"9565","You see how a woman is taking money out of a wallet <br> T&uacute ves como una mujer est&aacute sacando dinero de su billetera","{""Q0"":3}","trial","93859","survey-likert","86","1458178","0.0-5.0-0.70","58","1","2022-11-29 21:32:29","2df368f4e41f066fd1c82c297b4a1108","187.208.120.130","Mozilla/5.0 (Windows NT 10.0; Win64; x64) AppleWebKit/537.36 (KHTML, like Gecko) Chrome/107.0.0.0 Safari/537.36","WebKit","Chrome","107.0.0.0","Windows","10.0","[0]","","44","3",""
"6809","You drop a bowling ball on a rice cake <br> T&uacute tiras una bola de boliche a una tortita de arroz","{""Q0"":3}","trial","93859","survey-likert","87","1464996","0.0-5.0-0.71","58","1","2022-11-29 21:32:29","2df368f4e41f066fd1c82c297b4a1108","187.208.120.130","Mozilla/5.0 (Windows NT 10.0; Win64; x64) AppleWebKit/537.36 (KHTML, like Gecko) Chrome/107.0.0.0 Safari/537.36","WebKit","Chrome","107.0.0.0","Windows","10.0","[0]","","18","3",""
"6506","
    <p style=""font-size:20px;""> You have completed the experiment portion! </p>
    <p style=""font-size:20px;""> Before you are done, we would like you to answer some basic demographic questions. </p>
    <p style=""font-size:20px;""> Note that your answers to these questions will not affect your compensation/credit. </p>
    <p style=""font-size:20px;""> Click the button below to continue.</p>
    ","0","demo","93859","html-button-response","88","1471514","0.0-6.0","58","1","2022-11-29 21:32:29","2df368f4e41f066fd1c82c297b4a1108","187.208.120.130","Mozilla/5.0 (Windows NT 10.0; Win64; x64) AppleWebKit/537.36 (KHTML, like Gecko) Chrome/107.0.0.0 Safari/537.36","WebKit","Chrome","107.0.0.0","Windows","10.0","","","","",""
"126145","","{""Age"":""24"",""Gender"":""Male"",""Education"":""17""}","demo","93859","survey-text","89","1597669","0.0-7.0-0.0","58","1","2022-11-29 21:32:29","2df368f4e41f066fd1c82c297b4a1108","187.208.120.130","Mozilla/5.0 (Windows NT 10.0; Win64; x64) AppleWebKit/537.36 (KHTML, like Gecko) Chrome/107.0.0.0 Safari/537.36","WebKit","Chrome","107.0.0.0","Windows","10.0","","","","",""
"26451","","{""Race"":[""White/Caucasian""]}","demo","93859","survey-multi-select","90","1624130","0.0-7.0-1.0","58","1","2022-11-29 21:32:29","2df368f4e41f066fd1c82c297b4a1108","187.208.120.130","Mozilla/5.0 (Windows NT 10.0; Win64; x64) AppleWebKit/537.36 (KHTML, like Gecko) Chrome/107.0.0.0 Safari/537.36","WebKit","Chrome","107.0.0.0","Windows","10.0","[0]","","","",""
"18888","","{""Latino"":""Yes"",""Alert"":""No Differences""}","demo","93859","survey-multi-choice","91","1643030","0.0-7.0-2.0","58","1","2022-11-29 21:32:29","2df368f4e41f066fd1c82c297b4a1108","187.208.120.130","Mozilla/5.0 (Windows NT 10.0; Win64; x64) AppleWebKit/537.36 (KHTML, like Gecko) Chrome/107.0.0.0 Safari/537.36","WebKit","Chrome","107.0.0.0","Windows","10.0","[0,1]","","","",""
"37288","","{""Q0"":""None of the above""}","demo","93859","survey-text","92","1680325","0.0-7.0-3.0","58","1","2022-11-29 21:32:29","2df368f4e41f066fd1c82c297b4a1108","187.208.120.130","Mozilla/5.0 (Windows NT 10.0; Win64; x64) AppleWebKit/537.36 (KHTML, like Gecko) Chrome/107.0.0.0 Safari/537.36","WebKit","Chrome","107.0.0.0","Windows","10.0","","","","",""
"16552","<p>Thank you for participating! </p><strong>Your completion code is: CXEJB7NH. Please copy-paste this code and submit it on Prolific.</strong><p>Click <a href=""https://drive.google.com/file/d/1c70cdHFlc0AaR6RujLWLJwWkv1RbHQJY/view?usp=sharing"" target=""_blank"" rel=""noopener noreferrer"">here</a> to access the debriefing form and know more about our research. <p> Please click the button below to finish the experiment and save your data.</p> <p> IMPORTANT: Please <strong>do not leave this page </strong> without clicking the button below.</p> <p> You may close the tab/window after you click the button below.","0","","","html-button-response","93","1696883","0.0-8.0","58","1","2022-11-29 21:32:29","2df368f4e41f066fd1c82c297b4a1108","187.208.120.130","Mozilla/5.0 (Windows NT 10.0; Win64; x64) AppleWebKit/537.36 (KHTML, like Gecko) Chrome/107.0.0.0 Safari/537.36","WebKit","Chrome","107.0.0.0","Windows","10.0","","","","",""
